Folder: myspot_2024_07/XRD (part 41)

File: 2024-07-27_002_Ru-CGO-ex_Activtation_ramp_000002_data_000180.dat
# == pyFAI calibration ==
# Distance Sample to Detector: 0.4 m
# PONI: 9.750e-02, 1.135e-01 m
# Rotations: -0.000175 0.000000 -0.000000 rad
#
# == Fit2d calibration ==
# Distance Sample-beamCenter: 400.000 mm
# Center: x=1514.000, y=1300.000 pix
# Tilt: 0.010 deg  TiltPlanRot: 0.010 deg
#
# Detector Detector	 Spline= None	 PixelSize= 7.500e-05, 7.500e-05 m
#    Detector has a mask: False
#    Detector has a dark current: False
#    detector has a flat field: False
#
# Wavelength: 6.888e-11 m
# Mask applied: user provided
# Dark current applied: False
# Flat field applied: False
# Polarization factor: 0.99
# Normalization factor: 1.0
# --> /home/myspot/data/2024_07_Rosario/Ru-CGO-ex/2024-07-27_002_Ru-CGO-ex_Activtation_ramp_000002_data_000180.dat
#       q_nm^-1             I
  2.003187e-02    0.000000e+00
  1.311609e-01    0.000000e+00
  2.422899e-01    3.602526e-02
  3.534189e-01    0.000000e+00
  4.645479e-01    3.140778e-02
  5.756770e-01    2.319029e-02
  6.868060e-01    2.840449e-02
  7.979350e-01    1.259466e-01
  9.090640e-01    5.413330e-01
  1.020193e+00    1.191319e+00
  1.131322e+00    1.405301e+00
  1.242451e+00    2.058944e+00
  1.353580e+00    2.498664e+00
  1.464709e+00    2.654234e+00
  1.575838e+00    2.821884e+00
  1.686967e+00    2.818771e+00
  1.798096e+00    2.725052e+00
  1.909225e+00    2.709335e+00
  2.020354e+00    2.710130e+00
  2.131483e+00    2.728791e+00
  2.242612e+00    2.614970e+00
  2.353741e+00    2.707211e+00
  2.464870e+00    2.751814e+00
  2.575999e+00    2.767787e+00
  2.687128e+00    2.804070e+00
  2.798257e+00    2.727778e+00
  2.909386e+00    2.820164e+00
  3.020515e+00    2.909662e+00
  3.131644e+00    2.940638e+00
  3.242773e+00    2.953091e+00
  3.353902e+00    3.013549e+00
  3.465031e+00    2.959027e+00
  3.576160e+00    2.974969e+00
  3.687289e+00    2.964765e+00
  3.798418e+00    2.988943e+00
  3.909547e+00    3.068226e+00
  4.020676e+00    2.994519e+00
  4.131806e+00    3.008451e+00
  4.242935e+00    3.074020e+00
  4.354064e+00    3.185609e+00
  4.465193e+00    3.078005e+00
  4.576322e+00    3.082942e+00
  4.687451e+00    3.109468e+00
  4.798580e+00    3.117317e+00
  4.909709e+00    3.197359e+00
  5.020838e+00    3.161678e+00
  5.131967e+00    3.108584e+00
  5.243096e+00    3.215597e+00
  5.354225e+00    3.088362e+00
  5.465354e+00    3.102667e+00
  5.576483e+00    3.148867e+00
  5.687612e+00    3.105427e+00
  5.798741e+00    3.043005e+00
  5.909870e+00    3.021267e+00
  6.020999e+00    3.027370e+00
  6.132128e+00    3.073276e+00
  6.243257e+00    3.074289e+00
  6.354386e+00    3.082862e+00
  6.465515e+00    3.086697e+00
  6.576644e+00    3.037483e+00
  6.687773e+00    3.038409e+00
  6.798902e+00    3.041516e+00
  6.910031e+00    3.032075e+00
  7.021160e+00    3.103604e+00
  7.132289e+00    2.964332e+00
  7.243418e+00    2.995882e+00
  7.354547e+00    2.976316e+00
  7.465676e+00    3.011185e+00
  7.576805e+00    2.995952e+00
  7.687934e+00    2.939993e+00
  7.799063e+00    2.904673e+00
  7.910192e+00    2.917766e+00
  8.021321e+00    2.996007e+00
  8.132450e+00    2.943520e+00
  8.243579e+00    2.970776e+00
  8.354708e+00    2.860480e+00
  8.465837e+00    2.929161e+00
  8.576966e+00    2.899350e+00
  8.688095e+00    2.825267e+00
  8.799224e+00    2.886959e+00
  8.910353e+00    2.889126e+00
  9.021482e+00    2.849993e+00
  9.132611e+00    2.837402e+00
  9.243740e+00    2.738448e+00
  9.354869e+00    2.803725e+00
  9.465998e+00    2.787609e+00
  9.577127e+00    2.765416e+00
  9.688256e+00    2.763815e+00
  9.799385e+00    2.652112e+00
  9.910514e+00    2.716509e+00
  1.002164e+01    2.722777e+00
  1.013277e+01    2.677141e+00
  1.024390e+01    2.674175e+00
  1.035503e+01    2.636975e+00
  1.046616e+01    2.592006e+00
  1.057729e+01    2.635608e+00
  1.068842e+01    2.579773e+00
  1.079955e+01    2.622732e+00
  1.091068e+01    2.539276e+00
  1.102180e+01    2.507200e+00
  1.113293e+01    2.521337e+00
  1.124406e+01    2.458317e+00
  1.135519e+01    2.421696e+00
  1.146632e+01    2.426316e+00
  1.157745e+01    2.394348e+00
  1.168858e+01    2.387732e+00
  1.179971e+01    2.427081e+00
  1.191084e+01    2.348152e+00
  1.202197e+01    2.354225e+00
  1.213309e+01    2.320715e+00
  1.224422e+01    2.299349e+00
  1.235535e+01    2.344786e+00
  1.246648e+01    2.366241e+00
  1.257761e+01    2.363602e+00
  1.268874e+01    2.437074e+00
  1.279987e+01    2.684707e+00
  1.291100e+01    3.287257e+00
  1.302213e+01    6.189722e+00
  1.313326e+01    1.401618e+01
  1.324438e+01    1.044244e+01
  1.335551e+01    4.061589e+00
  1.346664e+01    2.753052e+00
  1.357777e+01    2.450509e+00
  1.368890e+01    2.239048e+00
  1.380003e+01    2.158644e+00
  1.391116e+01    2.119573e+00
  1.402229e+01    2.070093e+00
  1.413342e+01    2.012578e+00
  1.424455e+01    2.045529e+00
  1.435568e+01    1.946086e+00
  1.446680e+01    1.915982e+00
  1.457793e+01    1.908462e+00
  1.468906e+01    1.911069e+00
  1.480019e+01    1.923419e+00
  1.491132e+01    2.003483e+00
  1.502245e+01    2.275605e+00
  1.513358e+01    3.471835e+00
  1.524471e+01    5.411115e+00
  1.535584e+01    3.511443e+00
  1.546697e+01    2.165825e+00
  1.557809e+01    1.909356e+00
  1.568922e+01    1.744741e+00
  1.580035e+01    1.665124e+00
  1.591148e+01    1.633779e+00
  1.602261e+01    1.616809e+00
  1.613374e+01    1.605406e+00
  1.624487e+01    1.570418e+00
  1.635600e+01    1.537229e+00
  1.646713e+01    1.538278e+00
  1.657826e+01    1.506863e+00
  1.668938e+01    1.492739e+00
  1.680051e+01    1.454279e+00
  1.691164e+01    1.521253e+00
  1.702277e+01    1.429622e+00
  1.713390e+01    1.438385e+00
  1.724503e+01    1.425923e+00
  1.735616e+01    1.402002e+00
  1.746729e+01    1.379009e+00
  1.757842e+01    1.348921e+00
  1.768955e+01    1.373250e+00
  1.780067e+01    1.331228e+00
  1.791180e+01    1.360038e+00
  1.802293e+01    1.313801e+00
  1.813406e+01    1.318767e+00
  1.824519e+01    1.326260e+00
  1.835632e+01    1.279498e+00
  1.846745e+01    1.252466e+00
  1.857858e+01    1.239322e+00
  1.868971e+01    1.263779e+00
  1.880084e+01    1.223104e+00
  1.891196e+01    1.211205e+00
  1.902309e+01    1.189744e+00
  1.913422e+01    1.160056e+00
  1.924535e+01    1.180271e+00
  1.935648e+01    1.133632e+00
  1.946761e+01    1.189531e+00
  1.957874e+01    1.152086e+00
  1.968987e+01    1.153390e+00
  1.980100e+01    1.140828e+00
  1.991213e+01    1.149760e+00
  2.002325e+01    1.096224e+00
  2.013438e+01    1.110817e+00
  2.024551e+01    1.110392e+00
  2.035664e+01    1.092630e+00
  2.046777e+01    1.090927e+00
  2.057890e+01    1.096697e+00
  2.069003e+01    1.078130e+00
  2.080116e+01    1.072422e+00
  2.091229e+01    1.108006e+00
  2.102342e+01    1.077096e+00
  2.113455e+01    1.071695e+00
  2.124567e+01    1.092792e+00
  2.135680e+01    1.158198e+00
  2.146793e+01    1.230569e+00
  2.157906e+01    1.435930e+00
  2.169019e+01    2.310162e+00
  2.180132e+01    5.505512e+00
  2.191245e+01    8.668880e+00
  2.202358e+01    3.473222e+00
  2.213471e+01    1.745398e+00
  2.224584e+01    1.280939e+00
  2.235696e+01    1.114175e+00
  2.246809e+01    1.038417e+00
  2.257922e+01    9.894013e-01
  2.269035e+01    9.330122e-01
  2.280148e+01    9.538618e-01
  2.291261e+01    9.142407e-01
  2.302374e+01    8.876908e-01
  2.313487e+01    9.097560e-01
  2.324600e+01    8.825761e-01
  2.335713e+01    8.701259e-01
  2.346825e+01    8.641403e-01
  2.357938e+01    8.665636e-01
  2.369051e+01    8.309003e-01
  2.380164e+01    8.299624e-01
  2.391277e+01    7.953453e-01
  2.402390e+01    7.735556e-01
  2.413503e+01    7.799684e-01
  2.424616e+01    7.824805e-01
  2.435729e+01    7.616921e-01
  2.446842e+01    7.918450e-01
  2.457954e+01    7.857429e-01
  2.469067e+01    7.976483e-01
  2.480180e+01    7.849622e-01
  2.491293e+01    7.925390e-01
  2.502406e+01    8.169701e-01
  2.513519e+01    8.182376e-01
  2.524632e+01    8.213214e-01
  2.535745e+01    8.708419e-01
  2.546858e+01    9.528134e-01
  2.557971e+01    1.058812e+00
  2.569083e+01    1.431047e+00
  2.580196e+01    2.678396e+00
  2.591309e+01    6.194275e+00
  2.602422e+01    5.368457e+00
  2.613535e+01    2.045678e+00
  2.624648e+01    1.245432e+00
  2.635761e+01    9.808944e-01
  2.646874e+01    9.328147e-01
  2.657987e+01    8.885890e-01
  2.669100e+01    8.909473e-01
  2.680212e+01    8.741063e-01
  2.691325e+01    9.253470e-01
  2.702438e+01    1.053290e+00
  2.713551e+01    1.601885e+00
  2.724664e+01    2.047802e+00
  2.735777e+01    1.189667e+00
  2.746890e+01    9.281968e-01
  2.758003e+01    8.826107e-01
  2.769116e+01    8.147488e-01
  2.780229e+01    8.188002e-01
  2.791342e+01    7.815329e-01
  2.802454e+01    7.764859e-01
  2.813567e+01    7.758497e-01
  2.824680e+01    7.771948e-01
  2.835793e+01    7.639967e-01
  2.846906e+01    7.490271e-01
  2.858019e+01    7.408885e-01
  2.869132e+01    7.441593e-01
  2.880245e+01    7.313228e-01
  2.891358e+01    7.299761e-01
  2.902471e+01    7.281347e-01
  2.913583e+01    7.378330e-01
  2.924696e+01    7.122508e-01
  2.935809e+01    7.154090e-01
  2.946922e+01    7.289155e-01
  2.958035e+01    7.243518e-01
  2.969148e+01    7.181047e-01
  2.980261e+01    7.140487e-01
  2.991374e+01    7.084877e-01
  3.002487e+01    7.064238e-01
  3.013600e+01    6.942884e-01
  3.024712e+01    7.052987e-01
  3.035825e+01    6.966463e-01
  3.046938e+01    6.954570e-01
  3.058051e+01    6.989213e-01
  3.069164e+01    7.109743e-01
  3.080277e+01    7.144084e-01
  3.091390e+01    7.011733e-01
  3.102503e+01    7.035654e-01
  3.113616e+01    7.095520e-01
  3.124729e+01    7.262025e-01
  3.135841e+01    7.049797e-01
  3.146954e+01    7.571751e-01
  3.158067e+01    7.862620e-01
  3.169180e+01    9.211199e-01
  3.180293e+01    1.421806e+00
  3.191406e+01    2.108722e+00
  3.202519e+01    1.268703e+00
  3.213632e+01    8.619540e-01
  3.224745e+01    7.903768e-01
  3.235858e+01    7.168729e-01
  3.246970e+01    7.114575e-01
  3.254908e+01    7.127173e-01

File: 2024-07-27_002_Ru-CGO-ex_Activtation_ramp_000002_data_000181.dat
# == pyFAI calibration ==
# Distance Sample to Detector: 0.4 m
# PONI: 9.750e-02, 1.135e-01 m
# Rotations: -0.000175 0.000000 -0.000000 rad
#
# == Fit2d calibration ==
# Distance Sample-beamCenter: 400.000 mm
# Center: x=1514.000, y=1300.000 pix
# Tilt: 0.010 deg  TiltPlanRot: 0.010 deg
#
# Detector Detector	 Spline= None	 PixelSize= 7.500e-05, 7.500e-05 m
#    Detector has a mask: False
#    Detector has a dark current: False
#    detector has a flat field: False
#
# Wavelength: 6.888e-11 m
# Mask applied: user provided
# Dark current applied: False
# Flat field applied: False
# Polarization factor: 0.99
# Normalization factor: 1.0
# --> /home/myspot/data/2024_07_Rosario/Ru-CGO-ex/2024-07-27_002_Ru-CGO-ex_Activtation_ramp_000002_data_000181.dat
#       q_nm^-1             I
  2.003187e-02    0.000000e+00
  1.311609e-01    5.665584e-02
  2.422899e-01    2.979182e-02
  3.534189e-01    5.399890e-02
  4.645479e-01    2.400850e-02
  5.756770e-01    4.066489e-02
  6.868060e-01    2.370948e-02
  7.979350e-01    1.034992e-01
  9.090640e-01    5.578690e-01
  1.020193e+00    1.014695e+00
  1.131322e+00    1.557451e+00
  1.242451e+00    2.108493e+00
  1.353580e+00    2.504327e+00
  1.464709e+00    2.766285e+00
  1.575838e+00    2.824221e+00
  1.686967e+00    2.736207e+00
  1.798096e+00    2.610698e+00
  1.909225e+00    2.681401e+00
  2.020354e+00    2.768992e+00
  2.131483e+00    2.710203e+00
  2.242612e+00    2.832592e+00
  2.353741e+00    2.749708e+00
  2.464870e+00    2.706248e+00
  2.575999e+00    2.796060e+00
  2.687128e+00    2.813517e+00
  2.798257e+00    2.757755e+00
  2.909386e+00    2.848724e+00
  3.020515e+00    2.936785e+00
  3.131644e+00    2.907925e+00
  3.242773e+00    2.892074e+00
  3.353902e+00    2.977878e+00
  3.465031e+00    2.931081e+00
  3.576160e+00    3.021090e+00
  3.687289e+00    2.971377e+00
  3.798418e+00    3.008914e+00
  3.909547e+00    3.035454e+00
  4.020676e+00    3.028581e+00
  4.131806e+00    2.994631e+00
  4.242935e+00    3.110365e+00
  4.354064e+00    3.073083e+00
  4.465193e+00    3.133438e+00
  4.576322e+00    3.150148e+00
  4.687451e+00    3.166940e+00
  4.798580e+00    3.055803e+00
  4.909709e+00    3.145538e+00
  5.020838e+00    3.193664e+00
  5.131967e+00    3.105400e+00
  5.243096e+00    3.153449e+00
  5.354225e+00    3.158455e+00
  5.465354e+00    3.140505e+00
  5.576483e+00    3.015488e+00
  5.687612e+00    3.160152e+00
  5.798741e+00    3.081719e+00
  5.909870e+00    3.032453e+00
  6.020999e+00    2.969765e+00
  6.132128e+00    2.998277e+00
  6.243257e+00    3.115481e+00
  6.354386e+00    3.057482e+00
  6.465515e+00    3.051585e+00
  6.576644e+00    2.994322e+00
  6.687773e+00    3.100043e+00
  6.798902e+00    3.005729e+00
  6.910031e+00    3.058811e+00
  7.021160e+00    3.029058e+00
  7.132289e+00    3.014383e+00
  7.243418e+00    3.045783e+00
  7.354547e+00    2.959505e+00
  7.465676e+00    2.952319e+00
  7.576805e+00    2.958660e+00
  7.687934e+00    2.944525e+00
  7.799063e+00    2.928943e+00
  7.910192e+00    2.951759e+00
  8.021321e+00    2.920573e+00
  8.132450e+00    3.005233e+00
  8.243579e+00    3.014646e+00
  8.354708e+00    2.924152e+00
  8.465837e+00    2.941399e+00
  8.576966e+00    2.877381e+00
  8.688095e+00    2.887046e+00
  8.799224e+00    2.897460e+00
  8.910353e+00    2.889542e+00
  9.021482e+00    2.846521e+00
  9.132611e+00    2.795604e+00
  9.243740e+00    2.775626e+00
  9.354869e+00    2.757933e+00
  9.465998e+00    2.764436e+00
  9.577127e+00    2.850371e+00
  9.688256e+00    2.754879e+00
  9.799385e+00    2.774169e+00
  9.910514e+00    2.692337e+00
  1.002164e+01    2.617414e+00
  1.013277e+01    2.633866e+00
  1.024390e+01    2.617213e+00
  1.035503e+01    2.616436e+00
  1.046616e+01    2.580927e+00
  1.057729e+01    2.609864e+00
  1.068842e+01    2.572479e+00
  1.079955e+01    2.555839e+00
  1.091068e+01    2.522775e+00
  1.102180e+01    2.511365e+00
  1.113293e+01    2.426681e+00
  1.124406e+01    2.490991e+00
  1.135519e+01    2.477638e+00
  1.146632e+01    2.429386e+00
  1.157745e+01    2.372716e+00
  1.168858e+01    2.388252e+00
  1.179971e+01    2.382296e+00
  1.191084e+01    2.369431e+00
  1.202197e+01    2.365113e+00
  1.213309e+01    2.355817e+00
  1.224422e+01    2.328886e+00
  1.235535e+01    2.317941e+00
  1.246648e+01    2.330692e+00
  1.257761e+01    2.428412e+00
  1.268874e+01    2.450798e+00
  1.279987e+01    2.653659e+00
  1.291100e+01    3.278032e+00
  1.302213e+01    6.094677e+00
  1.313326e+01    1.405960e+01
  1.324438e+01    1.055755e+01
  1.335551e+01    4.111503e+00
  1.346664e+01    2.791158e+00
  1.357777e+01    2.439428e+00
  1.368890e+01    2.228937e+00
  1.380003e+01    2.155459e+00
  1.391116e+01    2.073275e+00
  1.402229e+01    2.043700e+00
  1.413342e+01    2.031912e+00
  1.424455e+01    1.960245e+00
  1.435568e+01    1.958019e+00
  1.446680e+01    1.903688e+00
  1.457793e+01    1.924482e+00
  1.468906e+01    1.913146e+00
  1.480019e+01    1.894778e+00
  1.491132e+01    1.932539e+00
  1.502245e+01    2.217056e+00
  1.513358e+01    3.435199e+00
  1.524471e+01    5.439538e+00
  1.535584e+01    3.536116e+00
  1.546697e+01    2.185090e+00
  1.557809e+01    1.860315e+00
  1.568922e+01    1.719584e+00
  1.580035e+01    1.686951e+00
  1.591148e+01    1.648340e+00
  1.602261e+01    1.603953e+00
  1.613374e+01    1.620252e+00
  1.624487e+01    1.531636e+00
  1.635600e+01    1.555733e+00
  1.646713e+01    1.477462e+00
  1.657826e+01    1.529812e+00
  1.668938e+01    1.502414e+00
  1.680051e+01    1.455697e+00
  1.691164e+01    1.459690e+00
  1.702277e+01    1.468245e+00
  1.713390e+01    1.455175e+00
  1.724503e+01    1.425932e+00
  1.735616e+01    1.383137e+00
  1.746729e+01    1.388337e+00
  1.757842e+01    1.368393e+00
  1.768955e+01    1.363796e+00
  1.780067e+01    1.344798e+00
  1.791180e+01    1.356301e+00
  1.802293e+01    1.304916e+00
  1.813406e+01    1.299602e+00
  1.824519e+01    1.303705e+00
  1.835632e+01    1.287472e+00
  1.846745e+01    1.237217e+00
  1.857858e+01    1.247119e+00
  1.868971e+01    1.242099e+00
  1.880084e+01    1.235977e+00
  1.891196e+01    1.231974e+00
  1.902309e+01    1.205003e+00
  1.913422e+01    1.216223e+00
  1.924535e+01    1.173067e+00
  1.935648e+01    1.181895e+00
  1.946761e+01    1.180037e+00
  1.957874e+01    1.162475e+00
  1.968987e+01    1.160475e+00
  1.980100e+01    1.143222e+00
  1.991213e+01    1.117347e+00
  2.002325e+01    1.107036e+00
  2.013438e+01    1.103523e+00
  2.024551e+01    1.106363e+00
  2.035664e+01    1.100196e+00
  2.046777e+01    1.103758e+00
  2.057890e+01    1.067107e+00
  2.069003e+01    1.069409e+00
  2.080116e+01    1.088014e+00
  2.091229e+01    1.083991e+00
  2.102342e+01    1.093413e+00
  2.113455e+01    1.097684e+00
  2.124567e+01    1.115223e+00
  2.135680e+01    1.124704e+00
  2.146793e+01    1.212593e+00
  2.157906e+01    1.478278e+00
  2.169019e+01    2.331510e+00
  2.180132e+01    5.476863e+00
  2.191245e+01    8.646449e+00
  2.202358e+01    3.482419e+00
  2.213471e+01    1.720106e+00
  2.224584e+01    1.296004e+00
  2.235696e+01    1.125078e+00
  2.246809e+01    1.037735e+00
  2.257922e+01    9.985774e-01
  2.269035e+01    9.310526e-01
  2.280148e+01    9.431297e-01
  2.291261e+01    9.298630e-01
  2.302374e+01    8.852763e-01
  2.313487e+01    8.733756e-01
  2.324600e+01    8.875826e-01
  2.335713e+01    8.782495e-01
  2.346825e+01    8.582177e-01
  2.357938e+01    8.353058e-01
  2.369051e+01    8.377766e-01
  2.380164e+01    8.188378e-01
  2.391277e+01    8.006569e-01
  2.402390e+01    8.004337e-01
  2.413503e+01    8.094353e-01
  2.424616e+01    7.913494e-01
  2.435729e+01    7.924560e-01
  2.446842e+01    8.059784e-01
  2.457954e+01    7.956186e-01
  2.469067e+01    7.943383e-01
  2.480180e+01    7.972310e-01
  2.491293e+01    7.893452e-01
  2.502406e+01    8.034738e-01
  2.513519e+01    8.041952e-01
  2.524632e+01    8.221229e-01
  2.535745e+01    8.839896e-01
  2.546858e+01    9.424096e-01
  2.557971e+01    1.062288e+00
  2.569083e+01    1.377837e+00
  2.580196e+01    2.646390e+00
  2.591309e+01    6.154354e+00
  2.602422e+01    5.378433e+00
  2.613535e+01    2.057077e+00
  2.624648e+01    1.226228e+00
  2.635761e+01    1.002032e+00
  2.646874e+01    9.209573e-01
  2.657987e+01    8.851464e-01
  2.669100e+01    8.942650e-01
  2.680212e+01    8.688252e-01
  2.691325e+01    9.041355e-01
  2.702438e+01    1.053447e+00
  2.713551e+01    1.631997e+00
  2.724664e+01    2.084145e+00
  2.735777e+01    1.199263e+00
  2.746890e+01    9.260827e-01
  2.758003e+01    8.454235e-01
  2.769116e+01    8.206391e-01
  2.780229e+01    7.882474e-01
  2.791342e+01    7.878051e-01
  2.802454e+01    7.759724e-01
  2.813567e+01    7.539523e-01
  2.824680e+01    7.709049e-01
  2.835793e+01    7.713447e-01
  2.846906e+01    7.551588e-01
  2.858019e+01    7.489737e-01
  2.869132e+01    7.512873e-01
  2.880245e+01    7.409518e-01
  2.891358e+01    7.421629e-01
  2.902471e+01    7.247623e-01
  2.913583e+01    7.240120e-01
  2.924696e+01    7.236449e-01
  2.935809e+01    7.234560e-01
  2.946922e+01    7.191635e-01
  2.958035e+01    7.409164e-01
  2.969148e+01    7.359409e-01
  2.980261e+01    7.331611e-01
  2.991374e+01    7.184122e-01
  3.002487e+01    7.220663e-01
  3.013600e+01    7.260425e-01
  3.024712e+01    7.132171e-01
  3.035825e+01    6.901997e-01
  3.046938e+01    7.256512e-01
  3.058051e+01    7.203485e-01
  3.069164e+01    7.149870e-01
  3.080277e+01    7.122259e-01
  3.091390e+01    6.992252e-01
  3.102503e+01    7.110523e-01
  3.113616e+01    7.191058e-01
  3.124729e+01    7.306676e-01
  3.135841e+01    7.327565e-01
  3.146954e+01    7.513555e-01
  3.158067e+01    7.813281e-01
  3.169180e+01    9.278066e-01
  3.180293e+01    1.386771e+00
  3.191406e+01    2.149371e+00
  3.202519e+01    1.284543e+00
  3.213632e+01    8.739676e-01
  3.224745e+01    7.742047e-01
  3.235858e+01    7.410692e-01
  3.246970e+01    7.169560e-01
  3.254908e+01    7.031366e-01