Folder: myspot_2024_07/XRD (part 44)

File: 2024-07-27_002_Ru-CGO-ex_Activtation_ramp_000002_data_000187.dat
# == pyFAI calibration ==
# Distance Sample to Detector: 0.4 m
# PONI: 9.750e-02, 1.135e-01 m
# Rotations: -0.000175 0.000000 -0.000000 rad
#
# == Fit2d calibration ==
# Distance Sample-beamCenter: 400.000 mm
# Center: x=1514.000, y=1300.000 pix
# Tilt: 0.010 deg  TiltPlanRot: 0.010 deg
#
# Detector Detector	 Spline= None	 PixelSize= 7.500e-05, 7.500e-05 m
#    Detector has a mask: False
#    Detector has a dark current: False
#    detector has a flat field: False
#
# Wavelength: 6.888e-11 m
# Mask applied: user provided
# Dark current applied: False
# Flat field applied: False
# Polarization factor: 0.99
# Normalization factor: 1.0
# --> /home/myspot/data/2024_07_Rosario/Ru-CGO-ex/2024-07-27_002_Ru-CGO-ex_Activtation_ramp_000002_data_000187.dat
#       q_nm^-1             I
  2.003187e-02    0.000000e+00
  1.311609e-01    4.075564e-02
  2.422899e-01    3.009386e-02
  3.534189e-01    3.702474e-02
  4.645479e-01    5.843154e-02
  5.756770e-01    2.963918e-02
  6.868060e-01    3.168431e-02
  7.979350e-01    1.539496e-01
  9.090640e-01    6.112446e-01
  1.020193e+00    1.111242e+00
  1.131322e+00    1.476916e+00
  1.242451e+00    2.028517e+00
  1.353580e+00    2.321509e+00
  1.464709e+00    2.669514e+00
  1.575838e+00    2.917389e+00
  1.686967e+00    2.699592e+00
  1.798096e+00    2.726311e+00
  1.909225e+00    2.720436e+00
  2.020354e+00    2.683722e+00
  2.131483e+00    2.776231e+00
  2.242612e+00    2.823999e+00
  2.353741e+00    2.812527e+00
  2.464870e+00    2.717433e+00
  2.575999e+00    2.788001e+00
  2.687128e+00    2.814912e+00
  2.798257e+00    2.787866e+00
  2.909386e+00    2.908065e+00
  3.020515e+00    2.950721e+00
  3.131644e+00    2.900655e+00
  3.242773e+00    2.978737e+00
  3.353902e+00    2.929828e+00
  3.465031e+00    2.902901e+00
  3.576160e+00    2.932387e+00
  3.687289e+00    3.020515e+00
  3.798418e+00    3.034321e+00
  3.909547e+00    2.952804e+00
  4.020676e+00    3.011934e+00
  4.131806e+00    3.024304e+00
  4.242935e+00    3.037393e+00
  4.354064e+00    3.039731e+00
  4.465193e+00    3.038824e+00
  4.576322e+00    3.047942e+00
  4.687451e+00    3.149489e+00
  4.798580e+00    3.105399e+00
  4.909709e+00    3.057181e+00
  5.020838e+00    3.090065e+00
  5.131967e+00    3.206322e+00
  5.243096e+00    3.189362e+00
  5.354225e+00    3.108444e+00
  5.465354e+00    3.102151e+00
  5.576483e+00    3.081760e+00
  5.687612e+00    3.148418e+00
  5.798741e+00    3.058714e+00
  5.909870e+00    3.061129e+00
  6.020999e+00    2.984018e+00
  6.132128e+00    3.075665e+00
  6.243257e+00    2.988506e+00
  6.354386e+00    3.144077e+00
  6.465515e+00    3.045123e+00
  6.576644e+00    3.040099e+00
  6.687773e+00    3.088275e+00
  6.798902e+00    3.044936e+00
  6.910031e+00    3.020127e+00
  7.021160e+00    3.021738e+00
  7.132289e+00    2.994534e+00
  7.243418e+00    2.973639e+00
  7.354547e+00    2.998288e+00
  7.465676e+00    2.969705e+00
  7.576805e+00    2.945526e+00
  7.687934e+00    3.008106e+00
  7.799063e+00    2.893621e+00
  7.910192e+00    2.966261e+00
  8.021321e+00    2.964916e+00
  8.132450e+00    2.971903e+00
  8.243579e+00    2.998965e+00
  8.354708e+00    2.964111e+00
  8.465837e+00    2.929395e+00
  8.576966e+00    2.843872e+00
  8.688095e+00    2.888307e+00
  8.799224e+00    2.885940e+00
  8.910353e+00    2.971234e+00
  9.021482e+00    2.782073e+00
  9.132611e+00    2.809346e+00
  9.243740e+00    2.807950e+00
  9.354869e+00    2.763796e+00
  9.465998e+00    2.789742e+00
  9.577127e+00    2.811209e+00
  9.688256e+00    2.700294e+00
  9.799385e+00    2.736546e+00
  9.910514e+00    2.704156e+00
  1.002164e+01    2.697348e+00
  1.013277e+01    2.651779e+00
  1.024390e+01    2.656600e+00
  1.035503e+01    2.644571e+00
  1.046616e+01    2.603262e+00
  1.057729e+01    2.594955e+00
  1.068842e+01    2.582702e+00
  1.079955e+01    2.545462e+00
  1.091068e+01    2.515814e+00
  1.102180e+01    2.523958e+00
  1.113293e+01    2.472692e+00
  1.124406e+01    2.456349e+00
  1.135519e+01    2.413854e+00
  1.146632e+01    2.461944e+00
  1.157745e+01    2.383889e+00
  1.168858e+01    2.335641e+00
  1.179971e+01    2.370850e+00
  1.191084e+01    2.319992e+00
  1.202197e+01    2.344182e+00
  1.213309e+01    2.360157e+00
  1.224422e+01    2.326483e+00
  1.235535e+01    2.332462e+00
  1.246648e+01    2.363616e+00
  1.257761e+01    2.332907e+00
  1.268874e+01    2.432491e+00
  1.279987e+01    2.635217e+00
  1.291100e+01    3.261403e+00
  1.302213e+01    6.157919e+00
  1.313326e+01    1.405960e+01
  1.324438e+01    1.028810e+01
  1.335551e+01    4.008149e+00
  1.346664e+01    2.741171e+00
  1.357777e+01    2.448391e+00
  1.368890e+01    2.235533e+00
  1.380003e+01    2.080961e+00
  1.391116e+01    2.044172e+00
  1.402229e+01    2.024150e+00
  1.413342e+01    1.986787e+00
  1.424455e+01    1.994491e+00
  1.435568e+01    1.925175e+00
  1.446680e+01    1.927818e+00
  1.457793e+01    1.901328e+00
  1.468906e+01    1.930436e+00
  1.480019e+01    1.905918e+00
  1.491132e+01    1.967784e+00
  1.502245e+01    2.225771e+00
  1.513358e+01    3.435829e+00
  1.524471e+01    5.390419e+00
  1.535584e+01    3.520346e+00
  1.546697e+01    2.157469e+00
  1.557809e+01    1.841370e+00
  1.568922e+01    1.736214e+00
  1.580035e+01    1.698507e+00
  1.591148e+01    1.640082e+00
  1.602261e+01    1.621263e+00
  1.613374e+01    1.562105e+00
  1.624487e+01    1.603212e+00
  1.635600e+01    1.498246e+00
  1.646713e+01    1.524544e+00
  1.657826e+01    1.496869e+00
  1.668938e+01    1.477974e+00
  1.680051e+01    1.432550e+00
  1.691164e+01    1.464187e+00
  1.702277e+01    1.444385e+00
  1.713390e+01    1.417513e+00
  1.724503e+01    1.408087e+00
  1.735616e+01    1.382031e+00
  1.746729e+01    1.353892e+00
  1.757842e+01    1.362983e+00
  1.768955e+01    1.351020e+00
  1.780067e+01    1.324469e+00
  1.791180e+01    1.324728e+00
  1.802293e+01    1.281794e+00
  1.813406e+01    1.305006e+00
  1.824519e+01    1.304147e+00
  1.835632e+01    1.277903e+00
  1.846745e+01    1.232238e+00
  1.857858e+01    1.285841e+00
  1.868971e+01    1.241579e+00
  1.880084e+01    1.226365e+00
  1.891196e+01    1.201904e+00
  1.902309e+01    1.197247e+00
  1.913422e+01    1.176723e+00
  1.924535e+01    1.202931e+00
  1.935648e+01    1.171370e+00
  1.946761e+01    1.171307e+00
  1.957874e+01    1.177059e+00
  1.968987e+01    1.108837e+00
  1.980100e+01    1.126475e+00
  1.991213e+01    1.115099e+00
  2.002325e+01    1.104115e+00
  2.013438e+01    1.128914e+00
  2.024551e+01    1.109508e+00
  2.035664e+01    1.140661e+00
  2.046777e+01    1.074658e+00
  2.057890e+01    1.069076e+00
  2.069003e+01    1.073553e+00
  2.080116e+01    1.088753e+00
  2.091229e+01    1.062431e+00
  2.102342e+01    1.068620e+00
  2.113455e+01    1.087253e+00
  2.124567e+01    1.115234e+00
  2.135680e+01    1.130193e+00
  2.146793e+01    1.226865e+00
  2.157906e+01    1.498816e+00
  2.169019e+01    2.385504e+00
  2.180132e+01    5.612379e+00
  2.191245e+01    8.547659e+00
  2.202358e+01    3.360452e+00
  2.213471e+01    1.691104e+00
  2.224584e+01    1.240182e+00
  2.235696e+01    1.116520e+00
  2.246809e+01    1.011536e+00
  2.257922e+01    9.740595e-01
  2.269035e+01    9.638343e-01
  2.280148e+01    9.265357e-01
  2.291261e+01    9.202331e-01
  2.302374e+01    8.939363e-01
  2.313487e+01    8.786309e-01
  2.324600e+01    8.645034e-01
  2.335713e+01    8.591030e-01
  2.346825e+01    8.556576e-01
  2.357938e+01    8.725560e-01
  2.369051e+01    8.596074e-01
  2.380164e+01    8.005735e-01
  2.391277e+01    7.931091e-01
  2.402390e+01    7.822071e-01
  2.413503e+01    7.831767e-01
  2.424616e+01    7.886007e-01
  2.435729e+01    7.901876e-01
  2.446842e+01    8.027570e-01
  2.457954e+01    7.940081e-01
  2.469067e+01    7.998669e-01
  2.480180e+01    7.931314e-01
  2.491293e+01    7.878354e-01
  2.502406e+01    7.972636e-01
  2.513519e+01    8.107895e-01
  2.524632e+01    8.415283e-01
  2.535745e+01    8.690817e-01
  2.546858e+01    9.408066e-01
  2.557971e+01    1.065686e+00
  2.569083e+01    1.423911e+00
  2.580196e+01    2.704133e+00
  2.591309e+01    6.266696e+00
  2.602422e+01    5.182729e+00
  2.613535e+01    1.974171e+00
  2.624648e+01    1.234714e+00
  2.635761e+01    1.016977e+00
  2.646874e+01    9.364745e-01
  2.657987e+01    8.789191e-01
  2.669100e+01    8.882884e-01
  2.680212e+01    8.777010e-01
  2.691325e+01    9.174225e-01
  2.702438e+01    1.039690e+00
  2.713551e+01    1.630136e+00
  2.724664e+01    2.003462e+00
  2.735777e+01    1.201449e+00
  2.746890e+01    9.050481e-01
  2.758003e+01    8.315781e-01
  2.769116e+01    7.820964e-01
  2.780229e+01    7.880526e-01
  2.791342e+01    7.869498e-01
  2.802454e+01    7.777219e-01
  2.813567e+01    7.620583e-01
  2.824680e+01    7.667980e-01
  2.835793e+01    7.510774e-01
  2.846906e+01    7.601441e-01
  2.858019e+01    7.591168e-01
  2.869132e+01    7.233930e-01
  2.880245e+01    7.353119e-01
  2.891358e+01    7.314206e-01
  2.902471e+01    7.247660e-01
  2.913583e+01    7.184287e-01
  2.924696e+01    7.123393e-01
  2.935809e+01    7.090912e-01
  2.946922e+01    6.994674e-01
  2.958035e+01    7.134395e-01
  2.969148e+01    7.133415e-01
  2.980261e+01    7.170880e-01
  2.991374e+01    6.889184e-01
  3.002487e+01    7.293441e-01
  3.013600e+01    7.296200e-01
  3.024712e+01    7.067491e-01
  3.035825e+01    7.100031e-01
  3.046938e+01    7.153625e-01
  3.058051e+01    7.014877e-01
  3.069164e+01    7.088043e-01
  3.080277e+01    6.965023e-01
  3.091390e+01    7.114674e-01
  3.102503e+01    6.830093e-01
  3.113616e+01    6.979815e-01
  3.124729e+01    7.452561e-01
  3.135841e+01    7.334685e-01
  3.146954e+01    7.389428e-01
  3.158067e+01    7.787855e-01
  3.169180e+01    9.260616e-01
  3.180293e+01    1.397848e+00
  3.191406e+01    2.073052e+00
  3.202519e+01    1.247349e+00
  3.213632e+01    8.720445e-01
  3.224745e+01    7.848974e-01
  3.235858e+01    7.502354e-01
  3.246970e+01    7.179861e-01
  3.254908e+01    7.233856e-01

File: cleaned_data.txt
q_nm^-1             I
2.003187e-02    0.000000e+00
1.311609e-01    1.090536e+00
2.422899e-01    0.000000e+00
3.534189e-01    6.886068e-03
4.645479e-01    0.000000e+00
5.756770e-01    1.105064e-03
6.868060e-01    3.830001e-03
7.979350e-01    2.867563e-04
9.090640e-01    4.256580e-02
1.020193e+00    4.985080e-02
1.131322e+00    6.075411e-02
1.242451e+00    8.820870e-02
1.353580e+00    1.559901e-01
1.464709e+00    2.102404e-01
1.575838e+00    1.579214e-01
1.686967e+00    1.452238e-01
1.798096e+00    1.351224e-01
1.909225e+00    1.127053e-01
2.020354e+00    1.010980e-01
2.131483e+00    1.179661e-01
2.242612e+00    8.494327e-02
2.353741e+00    1.199755e-01
2.464870e+00    1.097594e-01
2.575999e+00    1.082163e-01
2.687128e+00    1.083042e-01
2.798257e+00    9.826612e-02
2.909386e+00    1.158658e-01
3.020515e+00    1.107866e-01
3.131644e+00    1.111076e-01
3.242773e+00    1.156587e-01
3.353902e+00    1.109334e-01
3.465031e+00    9.043703e-02
3.576160e+00    1.007433e-01
3.687289e+00    1.140232e-01
3.798418e+00    1.010805e-01
3.909547e+00    1.016936e-01
4.020676e+00    1.226720e-01
4.131806e+00    9.382158e-02
4.242935e+00    1.084262e-01
4.354064e+00    1.119323e-01
4.465193e+00    8.774199e-02
4.576322e+00    1.073368e-01
4.687451e+00    1.061221e-01
4.798580e+00    1.139857e-01
4.909709e+00    1.290296e-01
5.020838e+00    1.163304e-01
5.131967e+00    1.335112e-01
5.243096e+00    1.166002e-01
5.354225e+00    1.038460e-01
5.465354e+00    1.105825e-01
5.576483e+00    1.135817e-01
5.687612e+00    1.085524e-01
5.798741e+00    1.178377e-01
5.909870e+00    1.082438e-01
6.020999e+00    1.116611e-01
6.132128e+00    1.174677e-01
6.243257e+00    1.309247e-01
6.354386e+00    1.067118e-01
6.465515e+00    1.053573e-01
6.576644e+00    1.316248e-01
6.687773e+00    1.263712e-01
6.798902e+00    1.200198e-01
6.910031e+00    1.110475e-01
7.021160e+00    1.082104e-01
7.132289e+00    1.362339e-01
7.243418e+00    1.219821e-01
7.354547e+00    1.106960e-01
7.465676e+00    1.120973e-01
7.576805e+00    1.024669e-01
7.687934e+00    1.127809e-01
7.799063e+00    1.160957e-01
7.910192e+00    1.093896e-01
8.021321e+00    1.119174e-01
8.132450e+00    1.155359e-01
8.243579e+00    1.130660e-01
8.354708e+00    1.057382e-01
8.465837e+00    1.215920e-01
8.576966e+00    1.099103e-01
8.688095e+00    1.132922e-01
8.799224e+00    9.468707e-02
8.910353e+00    9.466127e-02
9.021482e+00    1.100826e-01
9.132611e+00    9.575132e-02
9.243740e+00    9.561935e-02
9.354869e+00    9.027625e-02
9.465998e+00    9.671751e-02
9.577127e+00    1.041572e-01
9.688256e+00    1.069741e-01
9.799385e+00    1.089401e-01
9.910514e+00    1.089646e-01
1.002164e+01    1.149660e-01
1.013277e+01    1.259765e-01
1.024390e+01    1.430834e-01
1.035503e+01    1.766230e-01
1.046616e+01    3.501049e-01
1.057729e+01    1.259542e+00
1.068842e+01    2.915207e+00
1.079955e+01    1.649243e+00
1.091068e+01    4.247349e-01
1.102180e+01    2.242311e-01
1.113293e+01    1.714173e-01
1.124406e+01    1.444902e-01
1.135519e+01    1.273669e-01
1.146632e+01    1.125035e-01
1.157745e+01    1.129288e-01
1.168858e+01    1.078153e-01
1.179971e+01    1.013777e-01
1.191084e+01    1.098240e-01
1.202197e+01    1.143708e-01
1.213309e+01    1.518327e-01
1.224422e+01    3.483970e-01
1.235535e+01    8.397898e-01
1.246648e+01    6.589446e-01
1.257761e+01    2.079924e-01
1.268874e+01    1.391707e-01
1.279987e+01    9.979842e-02
1.291100e+01    8.749629e-02
1.302213e+01    8.393604e-02
1.313326e+01    7.952043e-02
1.324438e+01    7.886650e-02
1.335551e+01    7.946542e-02
1.346664e+01    8.159772e-02
1.357777e+01    7.752703e-02
1.368890e+01    7.384857e-02
1.380003e+01    7.117517e-02
1.391116e+01    7.088847e-02
1.402229e+01    7.947965e-02
1.413342e+01    6.512291e-02
1.424455e+01    6.036225e-02
1.435568e+01    6.283303e-02
1.446680e+01    6.125472e-02
1.457793e+01    7.050164e-02
1.468906e+01    6.581552e-02
1.480019e+01    7.299864e-02
1.491132e+01    6.188445e-02
1.502245e+01    6.657518e-02
1.513358e+01    6.583604e-02
1.524471e+01    6.633501e-02
1.535584e+01    6.237684e-02
1.546697e+01    5.872892e-02
1.557809e+01    5.746544e-02
1.568922e+01    6.023959e-02
1.580035e+01    6.379512e-02
1.591148e+01    6.387105e-02
1.602261e+01    6.545092e-02
1.613374e+01    6.490193e-02
1.624487e+01    6.158472e-02
1.635600e+01    5.907603e-02
1.646713e+01    5.661838e-02
1.657826e+01    6.163668e-02
1.668938e+01    7.380591e-02
1.680051e+01    7.085104e-02
1.691164e+01    6.255945e-02
1.702277e+01    7.194991e-02
1.713390e+01    8.696450e-02
1.724503e+01    9.717786e-02
1.735616e+01    1.116749e-01
1.746729e+01    2.421118e-01
1.757842e+01    8.699508e-01
1.768955e+01    1.767392e+00
1.780067e+01    7.199541e-01
1.791180e+01    2.560135e-01
1.802293e+01    1.383641e-01
1.813406e+01    9.946531e-02
1.824519e+01    8.612218e-02
1.835632e+01    8.549417e-02
1.846745e+01    6.845170e-02
1.857858e+01    7.333826e-02
1.868971e+01    6.839762e-02
1.880084e+01    6.575316e-02
1.891196e+01    5.683462e-02
1.902309e+01    5.496212e-02
1.913422e+01    5.800091e-02
1.924535e+01    5.037886e-02
1.935648e+01    4.895539e-02
1.946761e+01    5.769994e-02
1.957874e+01    5.236760e-02
1.968987e+01    5.771258e-02
1.980100e+01    5.686905e-02
1.991213e+01    5.644369e-02
2.002325e+01    6.103094e-02
2.013438e+01    6.477514e-02
2.024551e+01    6.892345e-02
2.035664e+01    7.194578e-02
2.046777e+01    8.698033e-02
2.057890e+01    1.162163e-01
2.069003e+01    2.430056e-01
2.080116e+01    8.512121e-01
2.091229e+01    1.499103e+00
2.102342e+01    5.183572e-01
2.113455e+01    2.357424e-01
2.124567e+01    1.271501e-01
2.135680e+01    1.081451e-01
2.146793e+01    9.188909e-02
2.157906e+01    8.909627e-02
2.169019e+01    1.218004e-01
2.180132e+01    2.331296e-01
2.191245e+01    3.298751e-01
2.202358e+01    1.358414e-01
2.213471e+01    8.242883e-02
2.224584e+01    6.425022e-02
2.235696e+01    6.204226e-02
2.246809e+01    5.878298e-02
2.257922e+01    5.504625e-02
2.269035e+01    5.369382e-02
2.280148e+01    4.843904e-02
2.291261e+01    5.154765e-02
2.302374e+01    4.485911e-02
2.313487e+01    5.337355e-02
2.324600e+01    4.935197e-02
2.335713e+01    4.838231e-02
2.346825e+01    4.478042e-02
2.357938e+01    4.475322e-02
2.369051e+01    4.473404e-02
2.380164e+01    3.785958e-02
2.391277e+01    4.185031e-02
2.402390e+01    3.893662e-02
2.413503e+01    4.333946e-02
2.424616e+01    4.572860e-02
2.435729e+01    5.463628e-02
2.446842e+01    6.322723e-02
2.457954e+01    4.493650e-02
2.469067e+01    4.128723e-02
2.480180e+01    4.032890e-02
2.491293e+01    4.558911e-02
2.502406e+01    5.152537e-02
2.513519e+01    4.915906e-02
2.524632e+01    6.621010e-02
2.535745e+01    1.200344e-01
2.546858e+01    2.704419e-01
2.557971e+01    2.234287e-01
2.569083e+01    9.480833e-02
2.580196e+01    6.294476e-02
2.591309e+01    5.642258e-02
2.602422e+01    5.161269e-02
2.613535e+01    4.923145e-02
2.624648e+01    4.572653e-02
2.635761e+01    5.022923e-02
2.646874e+01    4.815394e-02
2.657987e+01    4.883567e-02
2.669100e+01    5.173471e-02
2.680212e+01    4.512792e-02
2.691325e+01    4.490446e-02
2.702438e+01    5.172017e-02
2.713551e+01    5.349307e-02
2.724664e+01    4.989370e-02
2.735777e+01    5.023655e-02
2.746890e+01    5.523247e-02
2.758003e+01    5.631832e-02
2.769116e+01    8.113519e-02
2.780229e+01    1.240487e-01
2.791342e+01    3.339850e-01
2.802454e+01    6.229321e-01
2.813567e+01    2.890776e-01
2.824680e+01    1.362195e-01
2.835793e+01    9.979941e-02
2.846906e+01    8.298883e-02
2.858019e+01    1.065632e-01
2.869132e+01    2.214590e-01
2.880245e+01    4.613424e-01
2.891358e+01    2.573444e-01
2.902471e+01    1.196228e-01
2.913583e+01    8.944438e-02
2.924696e+01    7.868592e-02
2.935809e+01    6.883752e-02
2.946922e+01    6.151285e-02
2.958035e+01    6.161433e-02
2.969148e+01    6.140757e-02
2.980261e+01    5.135847e-02
2.991374e+01    4.694406e-02
3.002487e+01    5.122773e-02
3.013600e+01    5.388915e-02
3.024712e+01    5.384318e-02
3.035825e+01    4.670475e-02
3.046938e+01    4.921560e-02
3.058051e+01    5.437143e-02
3.069164e+01    5.081599e-02
3.080277e+01    5.135991e-02
3.091390e+01    4.908136e-02
3.102503e+01    5.131151e-02
3.113616e+01    5.066967e-02
3.124729e+01    5.526970e-02
3.135841e+01    5.818165e-02
3.146954e+01    6.652873e-02
3.158067e+01    7.753903e-02
3.169180e+01    1.406697e-01
3.180293e+01    3.791257e-01
3.191406e+01    5.249945e-01
3.202519e+01    2.135983e-01
3.213632e+01    1.270504e-01
3.224745e+01    8.740763e-02
3.235858e+01    6.738553e-02
3.246970e+01    5.673170e-02
3.254908e+01    6.378363e-02