Folder: myspot_2024_07/XRD (part 18)

File: 2024-07-27_002_Ru-CGO-ex_Activtation_ramp_000002_data_000080.dat
# == pyFAI calibration ==
# Distance Sample to Detector: 0.4 m
# PONI: 9.750e-02, 1.135e-01 m
# Rotations: -0.000175 0.000000 -0.000000 rad
#
# == Fit2d calibration ==
# Distance Sample-beamCenter: 400.000 mm
# Center: x=1514.000, y=1300.000 pix
# Tilt: 0.010 deg  TiltPlanRot: 0.010 deg
#
# Detector Detector	 Spline= None	 PixelSize= 7.500e-05, 7.500e-05 m
#    Detector has a mask: False
#    Detector has a dark current: False
#    detector has a flat field: False
#
# Wavelength: 6.888e-11 m
# Mask applied: user provided
# Dark current applied: False
# Flat field applied: False
# Polarization factor: 0.99
# Normalization factor: 1.0
# --> /home/myspot/data/2024_07_Rosario/Ru-CGO-ex/2024-07-27_002_Ru-CGO-ex_Activtation_ramp_000002_data_000080.dat
#       q_nm^-1             I
  2.003187e-02    0.000000e+00
  1.311609e-01    7.688540e-02
  2.422899e-01    2.554595e-02
  3.534189e-01    7.146795e-02
  4.645479e-01    2.771074e-02
  5.756770e-01    3.168424e-02
  6.868060e-01    3.336330e-02
  7.979350e-01    1.679078e-01
  9.090640e-01    5.045388e-01
  1.020193e+00    1.091265e+00
  1.131322e+00    1.440249e+00
  1.242451e+00    2.177968e+00
  1.353580e+00    2.561840e+00
  1.464709e+00    2.761424e+00
  1.575838e+00    2.969409e+00
  1.686967e+00    2.869253e+00
  1.798096e+00    2.805097e+00
  1.909225e+00    2.692033e+00
  2.020354e+00    2.701382e+00
  2.131483e+00    2.681239e+00
  2.242612e+00    2.758897e+00
  2.353741e+00    2.845906e+00
  2.464870e+00    2.791783e+00
  2.575999e+00    2.696190e+00
  2.687128e+00    2.784387e+00
  2.798257e+00    2.891054e+00
  2.909386e+00    2.856387e+00
  3.020515e+00    2.813365e+00
  3.131644e+00    2.855157e+00
  3.242773e+00    2.930195e+00
  3.353902e+00    2.923966e+00
  3.465031e+00    3.004494e+00
  3.576160e+00    2.926876e+00
  3.687289e+00    2.992950e+00
  3.798418e+00    2.972826e+00
  3.909547e+00    2.878978e+00
  4.020676e+00    3.058467e+00
  4.131806e+00    3.033456e+00
  4.242935e+00    2.964079e+00
  4.354064e+00    3.009778e+00
  4.465193e+00    2.990463e+00
  4.576322e+00    3.075875e+00
  4.687451e+00    3.048117e+00
  4.798580e+00    3.050376e+00
  4.909709e+00    3.103627e+00
  5.020838e+00    3.051977e+00
  5.131967e+00    3.135906e+00
  5.243096e+00    3.186864e+00
  5.354225e+00    3.117172e+00
  5.465354e+00    3.098420e+00
  5.576483e+00    3.017581e+00
  5.687612e+00    3.066164e+00
  5.798741e+00    3.035507e+00
  5.909870e+00    3.031059e+00
  6.020999e+00    2.950446e+00
  6.132128e+00    3.053633e+00
  6.243257e+00    3.000046e+00
  6.354386e+00    2.977084e+00
  6.465515e+00    3.055575e+00
  6.576644e+00    3.031493e+00
  6.687773e+00    3.037566e+00
  6.798902e+00    3.038076e+00
  6.910031e+00    2.984103e+00
  7.021160e+00    2.972881e+00
  7.132289e+00    3.009125e+00
  7.243418e+00    2.991449e+00
  7.354547e+00    2.952412e+00
  7.465676e+00    2.931053e+00
  7.576805e+00    2.915092e+00
  7.687934e+00    2.926432e+00
  7.799063e+00    2.885750e+00
  7.910192e+00    2.928335e+00
  8.021321e+00    2.900053e+00
  8.132450e+00    2.879178e+00
  8.243579e+00    3.035607e+00
  8.354708e+00    2.906065e+00
  8.465837e+00    2.882287e+00
  8.576966e+00    2.817718e+00
  8.688095e+00    2.874400e+00
  8.799224e+00    2.828850e+00
  8.910353e+00    2.810429e+00
  9.021482e+00    2.818047e+00
  9.132611e+00    2.776589e+00
  9.243740e+00    2.715391e+00
  9.354869e+00    2.768046e+00
  9.465998e+00    2.739577e+00
  9.577127e+00    2.773909e+00
  9.688256e+00    2.721573e+00
  9.799385e+00    2.692477e+00
  9.910514e+00    2.680657e+00
  1.002164e+01    2.671333e+00
  1.013277e+01    2.541298e+00
  1.024390e+01    2.652264e+00
  1.035503e+01    2.575851e+00
  1.046616e+01    2.551398e+00
  1.057729e+01    2.577577e+00
  1.068842e+01    2.529619e+00
  1.079955e+01    2.466099e+00
  1.091068e+01    2.570454e+00
  1.102180e+01    2.484595e+00
  1.113293e+01    2.411660e+00
  1.124406e+01    2.419801e+00
  1.135519e+01    2.441202e+00
  1.146632e+01    2.423946e+00
  1.157745e+01    2.394714e+00
  1.168858e+01    2.366808e+00
  1.179971e+01    2.351513e+00
  1.191084e+01    2.355561e+00
  1.202197e+01    2.359387e+00
  1.213309e+01    2.281807e+00
  1.224422e+01    2.288622e+00
  1.235535e+01    2.338357e+00
  1.246648e+01    2.325491e+00
  1.257761e+01    2.338460e+00
  1.268874e+01    2.447702e+00
  1.279987e+01    2.638952e+00
  1.291100e+01    3.257755e+00
  1.302213e+01    5.997817e+00
  1.313326e+01    1.500544e+01
  1.324438e+01    1.372667e+01
  1.335551e+01    4.803720e+00
  1.346664e+01    2.959587e+00
  1.357777e+01    2.508210e+00
  1.368890e+01    2.259440e+00
  1.380003e+01    2.183102e+00
  1.391116e+01    2.111496e+00
  1.402229e+01    2.077559e+00
  1.413342e+01    2.005586e+00
  1.424455e+01    1.996636e+00
  1.435568e+01    1.902687e+00
  1.446680e+01    1.923284e+00
  1.457793e+01    1.927120e+00
  1.468906e+01    1.912870e+00
  1.480019e+01    1.880598e+00
  1.491132e+01    1.939335e+00
  1.502245e+01    2.207582e+00
  1.513358e+01    3.350306e+00
  1.524471e+01    5.830602e+00
  1.535584e+01    4.339112e+00
  1.546697e+01    2.311417e+00
  1.557809e+01    1.894807e+00
  1.568922e+01    1.751113e+00
  1.580035e+01    1.702033e+00
  1.591148e+01    1.678359e+00
  1.602261e+01    1.624629e+00
  1.613374e+01    1.585711e+00
  1.624487e+01    1.556878e+00
  1.635600e+01    1.489302e+00
  1.646713e+01    1.524885e+00
  1.657826e+01    1.475496e+00
  1.668938e+01    1.494534e+00
  1.680051e+01    1.461034e+00
  1.691164e+01    1.457854e+00
  1.702277e+01    1.435253e+00
  1.713390e+01    1.456385e+00
  1.724503e+01    1.406186e+00
  1.735616e+01    1.357796e+00
  1.746729e+01    1.367089e+00
  1.757842e+01    1.335988e+00
  1.768955e+01    1.347466e+00
  1.780067e+01    1.338696e+00
  1.791180e+01    1.313034e+00
  1.802293e+01    1.315160e+00
  1.813406e+01    1.233732e+00
  1.824519e+01    1.271285e+00
  1.835632e+01    1.264317e+00
  1.846745e+01    1.269336e+00
  1.857858e+01    1.262541e+00
  1.868971e+01    1.222412e+00
  1.880084e+01    1.213797e+00
  1.891196e+01    1.210601e+00
  1.902309e+01    1.187642e+00
  1.913422e+01    1.153250e+00
  1.924535e+01    1.185786e+00
  1.935648e+01    1.152257e+00
  1.946761e+01    1.136692e+00
  1.957874e+01    1.145263e+00
  1.968987e+01    1.107353e+00
  1.980100e+01    1.153791e+00
  1.991213e+01    1.109460e+00
  2.002325e+01    1.114137e+00
  2.013438e+01    1.103888e+00
  2.024551e+01    1.133441e+00
  2.035664e+01    1.097382e+00
  2.046777e+01    1.095810e+00
  2.057890e+01    1.083196e+00
  2.069003e+01    1.046323e+00
  2.080116e+01    1.070560e+00
  2.091229e+01    1.085116e+00
  2.102342e+01    1.078367e+00
  2.113455e+01    1.080036e+00
  2.124567e+01    1.092128e+00
  2.135680e+01    1.132626e+00
  2.146793e+01    1.251117e+00
  2.157906e+01    1.452203e+00
  2.169019e+01    2.230174e+00
  2.180132e+01    5.206788e+00
  2.191245e+01    1.008782e+01
  2.202358e+01    4.747110e+00
  2.213471e+01    2.033746e+00
  2.224584e+01    1.373110e+00
  2.235696e+01    1.165265e+00
  2.246809e+01    1.063642e+00
  2.257922e+01    9.903830e-01
  2.269035e+01    9.564811e-01
  2.280148e+01    9.277365e-01
  2.291261e+01    9.178871e-01
  2.302374e+01    9.107733e-01
  2.313487e+01    8.689721e-01
  2.324600e+01    8.993048e-01
  2.335713e+01    8.449137e-01
  2.346825e+01    8.446751e-01
  2.357938e+01    8.558028e-01
  2.369051e+01    8.119319e-01
  2.380164e+01    8.078146e-01
  2.391277e+01    7.857534e-01
  2.402390e+01    7.834646e-01
  2.413503e+01    7.999603e-01
  2.424616e+01    7.810140e-01
  2.435729e+01    8.041015e-01
  2.446842e+01    7.790927e-01
  2.457954e+01    7.870784e-01
  2.469067e+01    7.916130e-01
  2.480180e+01    7.787151e-01
  2.491293e+01    7.883957e-01
  2.502406e+01    8.099161e-01
  2.513519e+01    8.030891e-01
  2.524632e+01    8.671547e-01
  2.535745e+01    8.887024e-01
  2.546858e+01    9.586705e-01
  2.557971e+01    1.056729e+00
  2.569083e+01    1.337518e+00
  2.580196e+01    2.412013e+00
  2.591309e+01    6.060081e+00
  2.602422e+01    7.488258e+00
  2.613535e+01    2.756718e+00
  2.624648e+01    1.497652e+00
  2.635761e+01    1.099609e+00
  2.646874e+01    9.858675e-01
  2.657987e+01    9.265649e-01
  2.669100e+01    8.884060e-01
  2.680212e+01    9.055491e-01
  2.691325e+01    9.055223e-01
  2.702438e+01    1.038663e+00
  2.713551e+01    1.539258e+00
  2.724664e+01    2.439572e+00
  2.735777e+01    1.451456e+00
  2.746890e+01    1.003790e+00
  2.758003e+01    9.154370e-01
  2.769116e+01    8.169222e-01
  2.780229e+01    8.247202e-01
  2.791342e+01    7.851031e-01
  2.802454e+01    7.747433e-01
  2.813567e+01    7.883219e-01
  2.824680e+01    7.670471e-01
  2.835793e+01    7.777668e-01
  2.846906e+01    7.619396e-01
  2.858019e+01    7.623965e-01
  2.869132e+01    7.376078e-01
  2.880245e+01    7.345611e-01
  2.891358e+01    7.355464e-01
  2.902471e+01    7.373064e-01
  2.913583e+01    7.415756e-01
  2.924696e+01    7.374003e-01
  2.935809e+01    7.304956e-01
  2.946922e+01    7.153618e-01
  2.958035e+01    7.526574e-01
  2.969148e+01    6.982667e-01
  2.980261e+01    7.133164e-01
  2.991374e+01    7.341636e-01
  3.002487e+01    7.523632e-01
  3.013600e+01    7.294990e-01
  3.024712e+01    7.078881e-01
  3.035825e+01    7.253932e-01
  3.046938e+01    7.120641e-01
  3.058051e+01    6.934054e-01
  3.069164e+01    7.328848e-01
  3.080277e+01    7.188863e-01
  3.091390e+01    7.174810e-01
  3.102503e+01    7.188166e-01
  3.113616e+01    7.111346e-01
  3.124729e+01    7.129138e-01
  3.135841e+01    7.343120e-01
  3.146954e+01    7.740872e-01
  3.158067e+01    7.853768e-01
  3.169180e+01    8.972843e-01
  3.180293e+01    1.330954e+00
  3.191406e+01    2.338998e+00
  3.202519e+01    1.696469e+00
  3.213632e+01    1.000240e+00
  3.224745e+01    8.162687e-01
  3.235858e+01    7.425661e-01
  3.246970e+01    7.345004e-01
  3.254908e+01    7.357096e-01

File: 2024-07-27_002_Ru-CGO-ex_Activtation_ramp_000002_data_000081.dat
# == pyFAI calibration ==
# Distance Sample to Detector: 0.4 m
# PONI: 9.750e-02, 1.135e-01 m
# Rotations: -0.000175 0.000000 -0.000000 rad
#
# == Fit2d calibration ==
# Distance Sample-beamCenter: 400.000 mm
# Center: x=1514.000, y=1300.000 pix
# Tilt: 0.010 deg  TiltPlanRot: 0.010 deg
#
# Detector Detector	 Spline= None	 PixelSize= 7.500e-05, 7.500e-05 m
#    Detector has a mask: False
#    Detector has a dark current: False
#    detector has a flat field: False
#
# Wavelength: 6.888e-11 m
# Mask applied: user provided
# Dark current applied: False
# Flat field applied: False
# Polarization factor: 0.99
# Normalization factor: 1.0
# --> /home/myspot/data/2024_07_Rosario/Ru-CGO-ex/2024-07-27_002_Ru-CGO-ex_Activtation_ramp_000002_data_000081.dat
#       q_nm^-1             I
  2.003187e-02    2.849293e-01
  1.311609e-01    1.626186e-02
  2.422899e-01    3.711267e-02
  3.534189e-01    3.180460e-02
  4.645479e-01    1.407257e-02
  5.756770e-01    5.697845e-02
  6.868060e-01    1.223575e-02
  7.979350e-01    1.476219e-01
  9.090640e-01    5.290920e-01
  1.020193e+00    1.048205e+00
  1.131322e+00    1.413593e+00
  1.242451e+00    2.184926e+00
  1.353580e+00    2.575286e+00
  1.464709e+00    2.681114e+00
  1.575838e+00    2.909452e+00
  1.686967e+00    2.839142e+00
  1.798096e+00    2.870714e+00
  1.909225e+00    2.814901e+00
  2.020354e+00    2.704834e+00
  2.131483e+00    2.690026e+00
  2.242612e+00    2.829050e+00
  2.353741e+00    2.740814e+00
  2.464870e+00    2.798965e+00
  2.575999e+00    2.875574e+00
  2.687128e+00    2.769032e+00
  2.798257e+00    3.035029e+00
  2.909386e+00    2.841734e+00
  3.020515e+00    2.834671e+00
  3.131644e+00    2.906737e+00
  3.242773e+00    2.875116e+00
  3.353902e+00    2.895342e+00
  3.465031e+00    2.903304e+00
  3.576160e+00    2.965441e+00
  3.687289e+00    2.958296e+00
  3.798418e+00    2.964524e+00
  3.909547e+00    3.010421e+00
  4.020676e+00    2.941950e+00
  4.131806e+00    2.965221e+00
  4.242935e+00    2.959992e+00
  4.354064e+00    3.043290e+00
  4.465193e+00    3.079084e+00
  4.576322e+00    3.053331e+00
  4.687451e+00    3.029860e+00
  4.798580e+00    2.996249e+00
  4.909709e+00    3.067913e+00
  5.020838e+00    3.142213e+00
  5.131967e+00    3.089499e+00
  5.243096e+00    3.101336e+00
  5.354225e+00    3.097520e+00
  5.465354e+00    3.175400e+00
  5.576483e+00    3.051308e+00
  5.687612e+00    3.039717e+00
  5.798741e+00    3.026489e+00
  5.909870e+00    3.008019e+00
  6.020999e+00    3.047399e+00
  6.132128e+00    3.006248e+00
  6.243257e+00    3.070050e+00
  6.354386e+00    3.011536e+00
  6.465515e+00    2.920362e+00
  6.576644e+00    2.946368e+00
  6.687773e+00    2.991313e+00
  6.798902e+00    3.034256e+00
  6.910031e+00    2.938341e+00
  7.021160e+00    3.029327e+00
  7.132289e+00    2.956937e+00
  7.243418e+00    3.012479e+00
  7.354547e+00    2.894946e+00
  7.465676e+00    2.910664e+00
  7.576805e+00    2.928948e+00
  7.687934e+00    2.886197e+00
  7.799063e+00    3.017774e+00
  7.910192e+00    2.935561e+00
  8.021321e+00    2.877252e+00
  8.132450e+00    2.920141e+00
  8.243579e+00    2.990947e+00
  8.354708e+00    2.913291e+00
  8.465837e+00    2.837941e+00
  8.576966e+00    2.841985e+00
  8.688095e+00    2.833332e+00
  8.799224e+00    2.883114e+00
  8.910353e+00    2.793852e+00
  9.021482e+00    2.785753e+00
  9.132611e+00    2.790435e+00
  9.243740e+00    2.752943e+00
  9.354869e+00    2.783189e+00
  9.465998e+00    2.721083e+00
  9.577127e+00    2.782747e+00
  9.688256e+00    2.689482e+00
  9.799385e+00    2.697114e+00
  9.910514e+00    2.652819e+00
  1.002164e+01    2.639351e+00
  1.013277e+01    2.625841e+00
  1.024390e+01    2.648027e+00
  1.035503e+01    2.590404e+00
  1.046616e+01    2.588636e+00
  1.057729e+01    2.526261e+00
  1.068842e+01    2.540931e+00
  1.079955e+01    2.539907e+00
  1.091068e+01    2.521760e+00
  1.102180e+01    2.480381e+00
  1.113293e+01    2.433510e+00
  1.124406e+01    2.423634e+00
  1.135519e+01    2.413981e+00
  1.146632e+01    2.356766e+00
  1.157745e+01    2.419679e+00
  1.168858e+01    2.323617e+00
  1.179971e+01    2.315889e+00
  1.191084e+01    2.335135e+00
  1.202197e+01    2.346469e+00
  1.213309e+01    2.331359e+00
  1.224422e+01    2.348791e+00
  1.235535e+01    2.286092e+00
  1.246648e+01    2.333276e+00
  1.257761e+01    2.373886e+00
  1.268874e+01    2.486373e+00
  1.279987e+01    2.642998e+00
  1.291100e+01    3.286570e+00
  1.302213e+01    6.023181e+00
  1.313326e+01    1.478465e+01
  1.324438e+01    1.365199e+01
  1.335551e+01    4.763869e+00
  1.346664e+01    2.933271e+00
  1.357777e+01    2.497130e+00
  1.368890e+01    2.289791e+00
  1.380003e+01    2.148988e+00
  1.391116e+01    2.103633e+00
  1.402229e+01    2.040860e+00
  1.413342e+01    1.995730e+00
  1.424455e+01    1.985793e+00
  1.435568e+01    1.935831e+00
  1.446680e+01    1.877090e+00
  1.457793e+01    1.938517e+00
  1.468906e+01    1.844496e+00
  1.480019e+01    1.903454e+00
  1.491132e+01    1.937975e+00
  1.502245e+01    2.199671e+00
  1.513358e+01    3.375550e+00
  1.524471e+01    5.818339e+00
  1.535584e+01    4.285437e+00
  1.546697e+01    2.348527e+00
  1.557809e+01    1.882083e+00
  1.568922e+01    1.787592e+00
  1.580035e+01    1.660318e+00
  1.591148e+01    1.624289e+00
  1.602261e+01    1.612257e+00
  1.613374e+01    1.586990e+00
  1.624487e+01    1.543217e+00
  1.635600e+01    1.541432e+00
  1.646713e+01    1.492702e+00
  1.657826e+01    1.480548e+00
  1.668938e+01    1.450277e+00
  1.680051e+01    1.490981e+00
  1.691164e+01    1.453599e+00
  1.702277e+01    1.403570e+00
  1.713390e+01    1.397230e+00
  1.724503e+01    1.388685e+00
  1.735616e+01    1.383472e+00
  1.746729e+01    1.370970e+00
  1.757842e+01    1.353899e+00
  1.768955e+01    1.333800e+00
  1.780067e+01    1.329008e+00
  1.791180e+01    1.346187e+00
  1.802293e+01    1.281550e+00
  1.813406e+01    1.284698e+00
  1.824519e+01    1.271529e+00
  1.835632e+01    1.254887e+00
  1.846745e+01    1.260501e+00
  1.857858e+01    1.246019e+00
  1.868971e+01    1.252415e+00
  1.880084e+01    1.224541e+00
  1.891196e+01    1.191393e+00
  1.902309e+01    1.176908e+00
  1.913422e+01    1.197870e+00
  1.924535e+01    1.188886e+00
  1.935648e+01    1.186611e+00
  1.946761e+01    1.155903e+00
  1.957874e+01    1.134462e+00
  1.968987e+01    1.141152e+00
  1.980100e+01    1.140164e+00
  1.991213e+01    1.098484e+00
  2.002325e+01    1.091991e+00
  2.013438e+01    1.142469e+00
  2.024551e+01    1.135072e+00
  2.035664e+01    1.091417e+00
  2.046777e+01    1.115346e+00
  2.057890e+01    1.067598e+00
  2.069003e+01    1.066825e+00
  2.080116e+01    1.059527e+00
  2.091229e+01    1.087248e+00
  2.102342e+01    1.089501e+00
  2.113455e+01    1.098010e+00
  2.124567e+01    1.077182e+00
  2.135680e+01    1.143292e+00
  2.146793e+01    1.219177e+00
  2.157906e+01    1.425269e+00
  2.169019e+01    2.230872e+00
  2.180132e+01    5.271864e+00
  2.191245e+01    1.010051e+01
  2.202358e+01    4.632463e+00
  2.213471e+01    2.042207e+00
  2.224584e+01    1.380502e+00
  2.235696e+01    1.150967e+00
  2.246809e+01    1.044862e+00
  2.257922e+01    1.000558e+00
  2.269035e+01    9.709564e-01
  2.280148e+01    9.308817e-01
  2.291261e+01    9.181712e-01
  2.302374e+01    9.165947e-01
  2.313487e+01    8.713502e-01
  2.324600e+01    8.819323e-01
  2.335713e+01    8.669525e-01
  2.346825e+01    8.475218e-01
  2.357938e+01    8.496833e-01
  2.369051e+01    8.198834e-01
  2.380164e+01    8.096340e-01
  2.391277e+01    7.903783e-01
  2.402390e+01    7.950871e-01
  2.413503e+01    7.864545e-01
  2.424616e+01    7.984629e-01
  2.435729e+01    7.980415e-01
  2.446842e+01    8.008810e-01
  2.457954e+01    7.881638e-01
  2.469067e+01    7.829348e-01
  2.480180e+01    7.922888e-01
  2.491293e+01    7.871811e-01
  2.502406e+01    7.955276e-01
  2.513519e+01    8.004383e-01
  2.524632e+01    8.428315e-01
  2.535745e+01    8.675509e-01
  2.546858e+01    9.300685e-01
  2.557971e+01    1.032716e+00
  2.569083e+01    1.371603e+00
  2.580196e+01    2.434950e+00
  2.591309e+01    6.044271e+00
  2.602422e+01    7.454404e+00
  2.613535e+01    2.697320e+00
  2.624648e+01    1.452326e+00
  2.635761e+01    1.087567e+00
  2.646874e+01    9.857391e-01
  2.657987e+01    9.194857e-01
  2.669100e+01    9.020690e-01
  2.680212e+01    9.079945e-01
  2.691325e+01    9.137024e-01
  2.702438e+01    1.046130e+00
  2.713551e+01    1.537880e+00
  2.724664e+01    2.382494e+00
  2.735777e+01    1.483811e+00
  2.746890e+01    1.005068e+00
  2.758003e+01    8.815748e-01
  2.769116e+01    8.555591e-01
  2.780229e+01    8.311026e-01
  2.791342e+01    8.025591e-01
  2.802454e+01    7.902883e-01
  2.813567e+01    7.906069e-01
  2.824680e+01    7.811686e-01
  2.835793e+01    7.884536e-01
  2.846906e+01    7.623147e-01
  2.858019e+01    7.662354e-01
  2.869132e+01    7.338732e-01
  2.880245e+01    7.555637e-01
  2.891358e+01    7.557899e-01
  2.902471e+01    7.107120e-01
  2.913583e+01    7.370602e-01
  2.924696e+01    7.183213e-01
  2.935809e+01    7.300607e-01
  2.946922e+01    7.168616e-01
  2.958035e+01    7.273251e-01
  2.969148e+01    7.145163e-01
  2.980261e+01    7.023737e-01
  2.991374e+01    7.119039e-01
  3.002487e+01    7.397324e-01
  3.013600e+01    7.209643e-01
  3.024712e+01    7.122100e-01
  3.035825e+01    6.965787e-01
  3.046938e+01    7.173871e-01
  3.058051e+01    7.176093e-01
  3.069164e+01    7.177902e-01
  3.080277e+01    7.308111e-01
  3.091390e+01    7.085627e-01
  3.102503e+01    7.170346e-01
  3.113616e+01    7.157333e-01
  3.124729e+01    7.283974e-01
  3.135841e+01    7.303548e-01
  3.146954e+01    7.629454e-01
  3.158067e+01    8.134068e-01
  3.169180e+01    9.145948e-01
  3.180293e+01    1.286478e+00
  3.191406e+01    2.318502e+00
  3.202519e+01    1.679518e+00
  3.213632e+01    9.958484e-01
  3.224745e+01    8.090678e-01
  3.235858e+01    7.608918e-01
  3.246970e+01    7.252744e-01
  3.254908e+01    7.345510e-01