Folder: myspot_2024_07/XRD (part 10)

File: 2024-07-27_002_Ru-CGO-ex_Activtation_ramp_000002_data_000037.dat
# == pyFAI calibration ==
# Distance Sample to Detector: 0.4 m
# PONI: 9.750e-02, 1.135e-01 m
# Rotations: -0.000175 0.000000 -0.000000 rad
#
# == Fit2d calibration ==
# Distance Sample-beamCenter: 400.000 mm
# Center: x=1514.000, y=1300.000 pix
# Tilt: 0.010 deg  TiltPlanRot: 0.010 deg
#
# Detector Detector	 Spline= None	 PixelSize= 7.500e-05, 7.500e-05 m
#    Detector has a mask: False
#    Detector has a dark current: False
#    detector has a flat field: False
#
# Wavelength: 6.888e-11 m
# Mask applied: user provided
# Dark current applied: False
# Flat field applied: False
# Polarization factor: 0.99
# Normalization factor: 1.0
# --> /home/myspot/data/2024_07_Rosario/Ru-CGO-ex/2024-07-27_002_Ru-CGO-ex_Activtation_ramp_000002_data_000037.dat
#       q_nm^-1             I
  2.003187e-02    1.424646e-01
  1.311609e-01    3.343841e-02
  2.422899e-01    5.141767e-02
  3.534189e-01    3.592709e-02
  4.645479e-01    2.883067e-02
  5.756770e-01    5.046105e-02
  6.868060e-01    1.921400e-02
  7.979350e-01    1.403841e-01
  9.090640e-01    5.768154e-01
  1.020193e+00    1.053790e+00
  1.131322e+00    1.482686e+00
  1.242451e+00    2.107694e+00
  1.353580e+00    2.551943e+00
  1.464709e+00    3.014879e+00
  1.575838e+00    2.992699e+00
  1.686967e+00    3.023550e+00
  1.798096e+00    2.877400e+00
  1.909225e+00    2.917476e+00
  2.020354e+00    2.796466e+00
  2.131483e+00    2.779625e+00
  2.242612e+00    2.884314e+00
  2.353741e+00    2.852614e+00
  2.464870e+00    2.834211e+00
  2.575999e+00    2.782769e+00
  2.687128e+00    2.860102e+00
  2.798257e+00    2.986937e+00
  2.909386e+00    2.854744e+00
  3.020515e+00    3.024155e+00
  3.131644e+00    2.983479e+00
  3.242773e+00    2.920580e+00
  3.353902e+00    3.019548e+00
  3.465031e+00    2.947565e+00
  3.576160e+00    2.924140e+00
  3.687289e+00    2.961125e+00
  3.798418e+00    3.020976e+00
  3.909547e+00    3.011893e+00
  4.020676e+00    3.094695e+00
  4.131806e+00    3.052547e+00
  4.242935e+00    3.066132e+00
  4.354064e+00    3.183583e+00
  4.465193e+00    3.044238e+00
  4.576322e+00    3.064813e+00
  4.687451e+00    3.083440e+00
  4.798580e+00    3.163988e+00
  4.909709e+00    3.084747e+00
  5.020838e+00    3.139633e+00
  5.131967e+00    3.091043e+00
  5.243096e+00    3.185385e+00
  5.354225e+00    3.135612e+00
  5.465354e+00    3.088500e+00
  5.576483e+00    3.078212e+00
  5.687612e+00    3.058133e+00
  5.798741e+00    3.028444e+00
  5.909870e+00    3.006812e+00
  6.020999e+00    2.993610e+00
  6.132128e+00    3.054183e+00
  6.243257e+00    3.085935e+00
  6.354386e+00    3.070103e+00
  6.465515e+00    3.103992e+00
  6.576644e+00    3.036862e+00
  6.687773e+00    3.038341e+00
  6.798902e+00    3.027894e+00
  6.910031e+00    2.999804e+00
  7.021160e+00    3.110963e+00
  7.132289e+00    3.034518e+00
  7.243418e+00    3.051254e+00
  7.354547e+00    2.929348e+00
  7.465676e+00    3.020128e+00
  7.576805e+00    3.000480e+00
  7.687934e+00    2.948785e+00
  7.799063e+00    2.909652e+00
  7.910192e+00    2.876412e+00
  8.021321e+00    3.007471e+00
  8.132450e+00    2.907247e+00
  8.243579e+00    2.978137e+00
  8.354708e+00    2.980171e+00
  8.465837e+00    2.824200e+00
  8.576966e+00    2.901351e+00
  8.688095e+00    2.879140e+00
  8.799224e+00    2.845829e+00
  8.910353e+00    2.745400e+00
  9.021482e+00    2.767631e+00
  9.132611e+00    2.859274e+00
  9.243740e+00    2.750539e+00
  9.354869e+00    2.786133e+00
  9.465998e+00    2.781103e+00
  9.577127e+00    2.764716e+00
  9.688256e+00    2.748924e+00
  9.799385e+00    2.736655e+00
  9.910514e+00    2.720692e+00
  1.002164e+01    2.718609e+00
  1.013277e+01    2.671137e+00
  1.024390e+01    2.685292e+00
  1.035503e+01    2.688464e+00
  1.046616e+01    2.574629e+00
  1.057729e+01    2.574047e+00
  1.068842e+01    2.579678e+00
  1.079955e+01    2.502870e+00
  1.091068e+01    2.539008e+00
  1.102180e+01    2.485763e+00
  1.113293e+01    2.484027e+00
  1.124406e+01    2.463115e+00
  1.135519e+01    2.458584e+00
  1.146632e+01    2.389909e+00
  1.157745e+01    2.432287e+00
  1.168858e+01    2.410428e+00
  1.179971e+01    2.368490e+00
  1.191084e+01    2.387733e+00
  1.202197e+01    2.390493e+00
  1.213309e+01    2.349425e+00
  1.224422e+01    2.345371e+00
  1.235535e+01    2.353801e+00
  1.246648e+01    2.385816e+00
  1.257761e+01    2.427420e+00
  1.268874e+01    2.469227e+00
  1.279987e+01    2.688215e+00
  1.291100e+01    3.286129e+00
  1.302213e+01    5.867693e+00
  1.313326e+01    1.505229e+01
  1.324438e+01    1.561640e+01
  1.335551e+01    5.378635e+00
  1.346664e+01    3.162142e+00
  1.357777e+01    2.560256e+00
  1.368890e+01    2.342769e+00
  1.380003e+01    2.202138e+00
  1.391116e+01    2.110883e+00
  1.402229e+01    2.091123e+00
  1.413342e+01    2.083899e+00
  1.424455e+01    1.968797e+00
  1.435568e+01    1.974159e+00
  1.446680e+01    1.952040e+00
  1.457793e+01    1.963992e+00
  1.468906e+01    1.935295e+00
  1.480019e+01    1.932862e+00
  1.491132e+01    1.995054e+00
  1.502245e+01    2.199024e+00
  1.513358e+01    3.225097e+00
  1.524471e+01    6.002427e+00
  1.535584e+01    4.819540e+00
  1.546697e+01    2.441781e+00
  1.557809e+01    1.922313e+00
  1.568922e+01    1.794773e+00
  1.580035e+01    1.669436e+00
  1.591148e+01    1.675987e+00
  1.602261e+01    1.639201e+00
  1.613374e+01    1.591580e+00
  1.624487e+01    1.616229e+00
  1.635600e+01    1.549349e+00
  1.646713e+01    1.518848e+00
  1.657826e+01    1.519014e+00
  1.668938e+01    1.503478e+00
  1.680051e+01    1.479873e+00
  1.691164e+01    1.445444e+00
  1.702277e+01    1.462161e+00
  1.713390e+01    1.455875e+00
  1.724503e+01    1.432925e+00
  1.735616e+01    1.420631e+00
  1.746729e+01    1.393780e+00
  1.757842e+01    1.400064e+00
  1.768955e+01    1.379581e+00
  1.780067e+01    1.321452e+00
  1.791180e+01    1.322519e+00
  1.802293e+01    1.312807e+00
  1.813406e+01    1.318452e+00
  1.824519e+01    1.268427e+00
  1.835632e+01    1.292684e+00
  1.846745e+01    1.275293e+00
  1.857858e+01    1.254640e+00
  1.868971e+01    1.249390e+00
  1.880084e+01    1.232529e+00
  1.891196e+01    1.220348e+00
  1.902309e+01    1.199931e+00
  1.913422e+01    1.175040e+00
  1.924535e+01    1.196426e+00
  1.935648e+01    1.189368e+00
  1.946761e+01    1.186516e+00
  1.957874e+01    1.167016e+00
  1.968987e+01    1.147090e+00
  1.980100e+01    1.128910e+00
  1.991213e+01    1.127980e+00
  2.002325e+01    1.150842e+00
  2.013438e+01    1.127847e+00
  2.024551e+01    1.095374e+00
  2.035664e+01    1.110885e+00
  2.046777e+01    1.093403e+00
  2.057890e+01    1.090827e+00
  2.069003e+01    1.065828e+00
  2.080116e+01    1.088889e+00
  2.091229e+01    1.090737e+00
  2.102342e+01    1.097182e+00
  2.113455e+01    1.090502e+00
  2.124567e+01    1.116249e+00
  2.135680e+01    1.160337e+00
  2.146793e+01    1.240935e+00
  2.157906e+01    1.457140e+00
  2.169019e+01    2.122827e+00
  2.180132e+01    4.928133e+00
  2.191245e+01    1.041302e+01
  2.202358e+01    5.759912e+00
  2.213471e+01    2.267096e+00
  2.224584e+01    1.480372e+00
  2.235696e+01    1.190520e+00
  2.246809e+01    1.100614e+00
  2.257922e+01    1.040209e+00
  2.269035e+01    9.763126e-01
  2.280148e+01    9.588294e-01
  2.291261e+01    9.362414e-01
  2.302374e+01    9.119487e-01
  2.313487e+01    8.979687e-01
  2.324600e+01    8.904369e-01
  2.335713e+01    8.648781e-01
  2.346825e+01    8.337786e-01
  2.357938e+01    8.316823e-01
  2.369051e+01    8.430219e-01
  2.380164e+01    8.227611e-01
  2.391277e+01    7.986848e-01
  2.402390e+01    8.032495e-01
  2.413503e+01    7.803403e-01
  2.424616e+01    7.972645e-01
  2.435729e+01    7.952552e-01
  2.446842e+01    8.189843e-01
  2.457954e+01    7.957733e-01
  2.469067e+01    8.317496e-01
  2.480180e+01    8.047588e-01
  2.491293e+01    8.122521e-01
  2.502406e+01    8.011021e-01
  2.513519e+01    8.116535e-01
  2.524632e+01    8.574624e-01
  2.535745e+01    9.005495e-01
  2.546858e+01    9.364491e-01
  2.557971e+01    1.061635e+00
  2.569083e+01    1.348824e+00
  2.580196e+01    2.258711e+00
  2.591309e+01    5.668080e+00
  2.602422e+01    8.641138e+00
  2.613535e+01    3.401994e+00
  2.624648e+01    1.616340e+00
  2.635761e+01    1.166982e+00
  2.646874e+01    1.026328e+00
  2.657987e+01    9.265129e-01
  2.669100e+01    9.421865e-01
  2.680212e+01    9.218155e-01
  2.691325e+01    9.423247e-01
  2.702438e+01    1.031721e+00
  2.713551e+01    1.456875e+00
  2.724664e+01    2.506860e+00
  2.735777e+01    1.703549e+00
  2.746890e+01    1.076198e+00
  2.758003e+01    9.405945e-01
  2.769116e+01    8.872917e-01
  2.780229e+01    8.308389e-01
  2.791342e+01    7.990362e-01
  2.802454e+01    8.075835e-01
  2.813567e+01    7.923285e-01
  2.824680e+01    7.803256e-01
  2.835793e+01    7.824957e-01
  2.846906e+01    7.594158e-01
  2.858019e+01    7.584118e-01
  2.869132e+01    7.754130e-01
  2.880245e+01    7.607312e-01
  2.891358e+01    7.465488e-01
  2.902471e+01    7.604460e-01
  2.913583e+01    7.553945e-01
  2.924696e+01    7.534968e-01
  2.935809e+01    7.655283e-01
  2.946922e+01    7.308801e-01
  2.958035e+01    7.246324e-01
  2.969148e+01    7.354944e-01
  2.980261e+01    7.335203e-01
  2.991374e+01    7.225832e-01
  3.002487e+01    7.584896e-01
  3.013600e+01    7.195898e-01
  3.024712e+01    7.269946e-01
  3.035825e+01    7.311425e-01
  3.046938e+01    6.884245e-01
  3.058051e+01    7.221628e-01
  3.069164e+01    7.236438e-01
  3.080277e+01    7.205799e-01
  3.091390e+01    7.271245e-01
  3.102503e+01    7.459791e-01
  3.113616e+01    7.394710e-01
  3.124729e+01    7.522033e-01
  3.135841e+01    7.695878e-01
  3.146954e+01    7.594134e-01
  3.158067e+01    7.823054e-01
  3.169180e+01    9.174148e-01
  3.180293e+01    1.231352e+00
  3.191406e+01    2.284847e+00
  3.202519e+01    2.080490e+00
  3.213632e+01    1.069367e+00
  3.224745e+01    8.492558e-01
  3.235858e+01    7.842827e-01
  3.246970e+01    7.462281e-01
  3.254908e+01    7.509369e-01

File: 2024-07-27_002_Ru-CGO-ex_Activtation_ramp_000002_data_000038.dat
# == pyFAI calibration ==
# Distance Sample to Detector: 0.4 m
# PONI: 9.750e-02, 1.135e-01 m
# Rotations: -0.000175 0.000000 -0.000000 rad
#
# == Fit2d calibration ==
# Distance Sample-beamCenter: 400.000 mm
# Center: x=1514.000, y=1300.000 pix
# Tilt: 0.010 deg  TiltPlanRot: 0.010 deg
#
# Detector Detector	 Spline= None	 PixelSize= 7.500e-05, 7.500e-05 m
#    Detector has a mask: False
#    Detector has a dark current: False
#    detector has a flat field: False
#
# Wavelength: 6.888e-11 m
# Mask applied: user provided
# Dark current applied: False
# Flat field applied: False
# Polarization factor: 0.99
# Normalization factor: 1.0
# --> /home/myspot/data/2024_07_Rosario/Ru-CGO-ex/2024-07-27_002_Ru-CGO-ex_Activtation_ramp_000002_data_000038.dat
#       q_nm^-1             I
  2.003187e-02    0.000000e+00
  1.311609e-01    3.343473e-02
  2.422899e-01    7.012007e-03
  3.534189e-01    3.888025e-02
  4.645479e-01    3.053164e-02
  5.756770e-01    2.854185e-02
  6.868060e-01    7.329872e-02
  7.979350e-01    1.355047e-01
  9.090640e-01    5.883795e-01
  1.020193e+00    1.132133e+00
  1.131322e+00    1.449964e+00
  1.242451e+00    2.205801e+00
  1.353580e+00    2.499599e+00
  1.464709e+00    2.974758e+00
  1.575838e+00    3.019848e+00
  1.686967e+00    2.882278e+00
  1.798096e+00    2.789502e+00
  1.909225e+00    2.785915e+00
  2.020354e+00    2.829669e+00
  2.131483e+00    2.736102e+00
  2.242612e+00    2.905816e+00
  2.353741e+00    2.812133e+00
  2.464870e+00    2.762852e+00
  2.575999e+00    2.747679e+00
  2.687128e+00    2.879083e+00
  2.798257e+00    2.816980e+00
  2.909386e+00    2.935638e+00
  3.020515e+00    2.873791e+00
  3.131644e+00    2.922774e+00
  3.242773e+00    2.968863e+00
  3.353902e+00    2.911383e+00
  3.465031e+00    2.933100e+00
  3.576160e+00    3.043480e+00
  3.687289e+00    2.950695e+00
  3.798418e+00    2.984138e+00
  3.909547e+00    3.090023e+00
  4.020676e+00    3.079799e+00
  4.131806e+00    3.014901e+00
  4.242935e+00    3.182233e+00
  4.354064e+00    2.981594e+00
  4.465193e+00    3.108086e+00
  4.576322e+00    2.995710e+00
  4.687451e+00    3.101831e+00
  4.798580e+00    3.071558e+00
  4.909709e+00    3.130734e+00
  5.020838e+00    3.062262e+00
  5.131967e+00    3.149230e+00
  5.243096e+00    3.142046e+00
  5.354225e+00    3.095613e+00
  5.465354e+00    3.127215e+00
  5.576483e+00    3.227196e+00
  5.687612e+00    3.071769e+00
  5.798741e+00    3.084280e+00
  5.909870e+00    3.050396e+00
  6.020999e+00    2.939215e+00
  6.132128e+00    3.097802e+00
  6.243257e+00    3.088491e+00
  6.354386e+00    2.981556e+00
  6.465515e+00    3.079102e+00
  6.576644e+00    3.099874e+00
  6.687773e+00    3.051538e+00
  6.798902e+00    3.032811e+00
  6.910031e+00    3.019272e+00
  7.021160e+00    3.089601e+00
  7.132289e+00    3.027187e+00
  7.243418e+00    3.026957e+00
  7.354547e+00    3.009598e+00
  7.465676e+00    2.928763e+00
  7.576805e+00    2.967396e+00
  7.687934e+00    2.980642e+00
  7.799063e+00    2.992475e+00
  7.910192e+00    2.914677e+00
  8.021321e+00    2.944419e+00
  8.132450e+00    2.985517e+00
  8.243579e+00    2.990262e+00
  8.354708e+00    2.942006e+00
  8.465837e+00    2.907793e+00
  8.576966e+00    2.857250e+00
  8.688095e+00    2.907082e+00
  8.799224e+00    2.838994e+00
  8.910353e+00    2.864676e+00
  9.021482e+00    2.763635e+00
  9.132611e+00    2.812321e+00
  9.243740e+00    2.760833e+00
  9.354869e+00    2.783624e+00
  9.465998e+00    2.780097e+00
  9.577127e+00    2.778727e+00
  9.688256e+00    2.731194e+00
  9.799385e+00    2.731485e+00
  9.910514e+00    2.696110e+00
  1.002164e+01    2.719132e+00
  1.013277e+01    2.619899e+00
  1.024390e+01    2.634814e+00
  1.035503e+01    2.643034e+00
  1.046616e+01    2.661013e+00
  1.057729e+01    2.609078e+00
  1.068842e+01    2.546582e+00
  1.079955e+01    2.512668e+00
  1.091068e+01    2.513746e+00
  1.102180e+01    2.521880e+00
  1.113293e+01    2.491310e+00
  1.124406e+01    2.456378e+00
  1.135519e+01    2.478667e+00
  1.146632e+01    2.430918e+00
  1.157745e+01    2.423012e+00
  1.168858e+01    2.396768e+00
  1.179971e+01    2.348457e+00
  1.191084e+01    2.387940e+00
  1.202197e+01    2.383034e+00
  1.213309e+01    2.356082e+00
  1.224422e+01    2.348216e+00
  1.235535e+01    2.350374e+00
  1.246648e+01    2.403022e+00
  1.257761e+01    2.369304e+00
  1.268874e+01    2.495802e+00
  1.279987e+01    2.660215e+00
  1.291100e+01    3.270378e+00
  1.302213e+01    5.934960e+00
  1.313326e+01    1.498884e+01
  1.324438e+01    1.569265e+01
  1.335551e+01    5.362629e+00
  1.346664e+01    3.077459e+00
  1.357777e+01    2.580015e+00
  1.368890e+01    2.316483e+00
  1.380003e+01    2.217695e+00
  1.391116e+01    2.086764e+00
  1.402229e+01    2.064502e+00
  1.413342e+01    1.992539e+00
  1.424455e+01    1.951668e+00
  1.435568e+01    1.993351e+00
  1.446680e+01    1.975698e+00
  1.457793e+01    1.942458e+00
  1.468906e+01    1.944391e+00
  1.480019e+01    1.914060e+00
  1.491132e+01    1.980448e+00
  1.502245e+01    2.244604e+00
  1.513358e+01    3.318543e+00
  1.524471e+01    6.010832e+00
  1.535584e+01    4.858358e+00
  1.546697e+01    2.475260e+00
  1.557809e+01    1.980795e+00
  1.568922e+01    1.767060e+00
  1.580035e+01    1.767463e+00
  1.591148e+01    1.657550e+00
  1.602261e+01    1.660496e+00
  1.613374e+01    1.623531e+00
  1.624487e+01    1.570839e+00
  1.635600e+01    1.551777e+00
  1.646713e+01    1.538146e+00
  1.657826e+01    1.489841e+00
  1.668938e+01    1.485865e+00
  1.680051e+01    1.484915e+00
  1.691164e+01    1.442999e+00
  1.702277e+01    1.464332e+00
  1.713390e+01    1.428377e+00
  1.724503e+01    1.423453e+00
  1.735616e+01    1.404000e+00
  1.746729e+01    1.405089e+00
  1.757842e+01    1.387871e+00
  1.768955e+01    1.372109e+00
  1.780067e+01    1.340001e+00
  1.791180e+01    1.323063e+00
  1.802293e+01    1.330688e+00
  1.813406e+01    1.284968e+00
  1.824519e+01    1.293867e+00
  1.835632e+01    1.277092e+00
  1.846745e+01    1.263870e+00
  1.857858e+01    1.261326e+00
  1.868971e+01    1.271812e+00
  1.880084e+01    1.237823e+00
  1.891196e+01    1.232226e+00
  1.902309e+01    1.180530e+00
  1.913422e+01    1.203890e+00
  1.924535e+01    1.193482e+00
  1.935648e+01    1.211776e+00
  1.946761e+01    1.189589e+00
  1.957874e+01    1.171736e+00
  1.968987e+01    1.155344e+00
  1.980100e+01    1.172695e+00
  1.991213e+01    1.162327e+00
  2.002325e+01    1.128753e+00
  2.013438e+01    1.100432e+00
  2.024551e+01    1.110370e+00
  2.035664e+01    1.100128e+00
  2.046777e+01    1.102581e+00
  2.057890e+01    1.101958e+00
  2.069003e+01    1.093464e+00
  2.080116e+01    1.077974e+00
  2.091229e+01    1.092949e+00
  2.102342e+01    1.121204e+00
  2.113455e+01    1.111297e+00
  2.124567e+01    1.122267e+00
  2.135680e+01    1.154937e+00
  2.146793e+01    1.247360e+00
  2.157906e+01    1.442169e+00
  2.169019e+01    2.138172e+00
  2.180132e+01    4.945055e+00
  2.191245e+01    1.053259e+01
  2.202358e+01    5.750669e+00
  2.213471e+01    2.250627e+00
  2.224584e+01    1.447386e+00
  2.235696e+01    1.198445e+00
  2.246809e+01    1.092914e+00
  2.257922e+01    1.039485e+00
  2.269035e+01    9.713950e-01
  2.280148e+01    9.582472e-01
  2.291261e+01    9.344978e-01
  2.302374e+01    9.208008e-01
  2.313487e+01    9.000117e-01
  2.324600e+01    8.879229e-01
  2.335713e+01    8.948707e-01
  2.346825e+01    8.742268e-01
  2.357938e+01    8.593920e-01
  2.369051e+01    8.485131e-01
  2.380164e+01    8.088687e-01
  2.391277e+01    8.138980e-01
  2.402390e+01    8.181182e-01
  2.413503e+01    8.005673e-01
  2.424616e+01    8.169305e-01
  2.435729e+01    8.084070e-01
  2.446842e+01    8.047486e-01
  2.457954e+01    7.957917e-01
  2.469067e+01    8.166221e-01
  2.480180e+01    8.041046e-01
  2.491293e+01    8.253955e-01
  2.502406e+01    8.256308e-01
  2.513519e+01    8.345692e-01
  2.524632e+01    8.871223e-01
  2.535745e+01    8.961224e-01
  2.546858e+01    9.709513e-01
  2.557971e+01    1.040684e+00
  2.569083e+01    1.327080e+00
  2.580196e+01    2.278436e+00
  2.591309e+01    5.748841e+00
  2.602422e+01    8.570771e+00
  2.613535e+01    3.388609e+00
  2.624648e+01    1.649458e+00
  2.635761e+01    1.161477e+00
  2.646874e+01    1.023233e+00
  2.657987e+01    9.630787e-01
  2.669100e+01    9.261634e-01
  2.680212e+01    9.108302e-01
  2.691325e+01    9.359442e-01
  2.702438e+01    1.047868e+00
  2.713551e+01    1.469503e+00
  2.724664e+01    2.505875e+00
  2.735777e+01    1.703023e+00
  2.746890e+01    1.089906e+00
  2.758003e+01    9.060018e-01
  2.769116e+01    8.387010e-01
  2.780229e+01    8.126358e-01
  2.791342e+01    8.078054e-01
  2.802454e+01    7.906919e-01
  2.813567e+01    7.872099e-01
  2.824680e+01    7.917135e-01
  2.835793e+01    7.915391e-01
  2.846906e+01    7.885593e-01
  2.858019e+01    7.761350e-01
  2.869132e+01    7.638159e-01
  2.880245e+01    7.684683e-01
  2.891358e+01    7.550540e-01
  2.902471e+01    7.589425e-01
  2.913583e+01    7.382447e-01
  2.924696e+01    7.431875e-01
  2.935809e+01    7.450399e-01
  2.946922e+01    7.321212e-01
  2.958035e+01    7.348807e-01
  2.969148e+01    7.208180e-01
  2.980261e+01    7.623188e-01
  2.991374e+01    7.456526e-01
  3.002487e+01    7.456890e-01
  3.013600e+01    7.273905e-01
  3.024712e+01    7.180117e-01
  3.035825e+01    7.374818e-01
  3.046938e+01    7.126637e-01
  3.058051e+01    7.435548e-01
  3.069164e+01    7.209686e-01
  3.080277e+01    7.251672e-01
  3.091390e+01    7.246689e-01
  3.102503e+01    7.334831e-01
  3.113616e+01    7.520970e-01
  3.124729e+01    7.313960e-01
  3.135841e+01    7.574355e-01
  3.146954e+01    7.725856e-01
  3.158067e+01    8.061417e-01
  3.169180e+01    9.023587e-01
  3.180293e+01    1.229238e+00
  3.191406e+01    2.282622e+00
  3.202519e+01    2.014941e+00
  3.213632e+01    1.100350e+00
  3.224745e+01    8.350917e-01
  3.235858e+01    7.818632e-01
  3.246970e+01    7.664072e-01
  3.254908e+01    7.235419e-01