Folder: myspot_2024_07/XRD (part 23)

File: 2024-07-27_002_Ru-CGO-ex_Activtation_ramp_000002_data_000097.dat
# == pyFAI calibration ==
# Distance Sample to Detector: 0.4 m
# PONI: 9.750e-02, 1.135e-01 m
# Rotations: -0.000175 0.000000 -0.000000 rad
#
# == Fit2d calibration ==
# Distance Sample-beamCenter: 400.000 mm
# Center: x=1514.000, y=1300.000 pix
# Tilt: 0.010 deg  TiltPlanRot: 0.010 deg
#
# Detector Detector	 Spline= None	 PixelSize= 7.500e-05, 7.500e-05 m
#    Detector has a mask: False
#    Detector has a dark current: False
#    detector has a flat field: False
#
# Wavelength: 6.888e-11 m
# Mask applied: user provided
# Dark current applied: False
# Flat field applied: False
# Polarization factor: 0.99
# Normalization factor: 1.0
# --> /home/myspot/data/2024_07_Rosario/Ru-CGO-ex/2024-07-27_002_Ru-CGO-ex_Activtation_ramp_000002_data_000097.dat
#       q_nm^-1             I
  2.003187e-02    1.542450e-01
  1.311609e-01    0.000000e+00
  2.422899e-01    7.735296e-02
  3.534189e-01    6.712979e-02
  4.645479e-01    6.384125e-02
  5.756770e-01    3.360832e-02
  6.868060e-01    4.925935e-02
  7.979350e-01    1.462342e-01
  9.090640e-01    5.332735e-01
  1.020193e+00    1.119013e+00
  1.131322e+00    1.421277e+00
  1.242451e+00    2.218883e+00
  1.353580e+00    2.426309e+00
  1.464709e+00    2.931379e+00
  1.575838e+00    2.902718e+00
  1.686967e+00    2.933213e+00
  1.798096e+00    2.791155e+00
  1.909225e+00    2.714562e+00
  2.020354e+00    2.774884e+00
  2.131483e+00    2.633248e+00
  2.242612e+00    2.727616e+00
  2.353741e+00    2.778338e+00
  2.464870e+00    2.724680e+00
  2.575999e+00    2.769270e+00
  2.687128e+00    2.700258e+00
  2.798257e+00    2.817323e+00
  2.909386e+00    2.804617e+00
  3.020515e+00    2.866202e+00
  3.131644e+00    2.905577e+00
  3.242773e+00    2.921299e+00
  3.353902e+00    2.897176e+00
  3.465031e+00    2.949703e+00
  3.576160e+00    2.927363e+00
  3.687289e+00    2.988695e+00
  3.798418e+00    2.976222e+00
  3.909547e+00    2.983602e+00
  4.020676e+00    3.035192e+00
  4.131806e+00    2.964197e+00
  4.242935e+00    2.979617e+00
  4.354064e+00    3.055175e+00
  4.465193e+00    3.033099e+00
  4.576322e+00    3.003386e+00
  4.687451e+00    3.153157e+00
  4.798580e+00    3.086325e+00
  4.909709e+00    3.122712e+00
  5.020838e+00    3.079059e+00
  5.131967e+00    3.121884e+00
  5.243096e+00    3.070544e+00
  5.354225e+00    3.076196e+00
  5.465354e+00    3.067379e+00
  5.576483e+00    3.070095e+00
  5.687612e+00    3.016621e+00
  5.798741e+00    3.011614e+00
  5.909870e+00    2.955158e+00
  6.020999e+00    2.947338e+00
  6.132128e+00    2.997082e+00
  6.243257e+00    3.016982e+00
  6.354386e+00    2.931108e+00
  6.465515e+00    2.954741e+00
  6.576644e+00    2.913495e+00
  6.687773e+00    2.957581e+00
  6.798902e+00    2.969784e+00
  6.910031e+00    2.936283e+00
  7.021160e+00    2.917413e+00
  7.132289e+00    3.009917e+00
  7.243418e+00    2.938887e+00
  7.354547e+00    2.985469e+00
  7.465676e+00    2.925012e+00
  7.576805e+00    2.979387e+00
  7.687934e+00    2.955287e+00
  7.799063e+00    2.870486e+00
  7.910192e+00    2.986428e+00
  8.021321e+00    2.895016e+00
  8.132450e+00    2.965014e+00
  8.243579e+00    2.903424e+00
  8.354708e+00    2.850736e+00
  8.465837e+00    2.881466e+00
  8.576966e+00    2.851684e+00
  8.688095e+00    2.833091e+00
  8.799224e+00    2.790647e+00
  8.910353e+00    2.809765e+00
  9.021482e+00    2.763633e+00
  9.132611e+00    2.850882e+00
  9.243740e+00    2.734158e+00
  9.354869e+00    2.762141e+00
  9.465998e+00    2.761741e+00
  9.577127e+00    2.765198e+00
  9.688256e+00    2.737978e+00
  9.799385e+00    2.632377e+00
  9.910514e+00    2.689796e+00
  1.002164e+01    2.642717e+00
  1.013277e+01    2.614134e+00
  1.024390e+01    2.641579e+00
  1.035503e+01    2.569752e+00
  1.046616e+01    2.585634e+00
  1.057729e+01    2.618345e+00
  1.068842e+01    2.546996e+00
  1.079955e+01    2.516882e+00
  1.091068e+01    2.520237e+00
  1.102180e+01    2.463271e+00
  1.113293e+01    2.472272e+00
  1.124406e+01    2.431285e+00
  1.135519e+01    2.398622e+00
  1.146632e+01    2.392174e+00
  1.157745e+01    2.349881e+00
  1.168858e+01    2.378259e+00
  1.179971e+01    2.355544e+00
  1.191084e+01    2.294116e+00
  1.202197e+01    2.319091e+00
  1.213309e+01    2.324595e+00
  1.224422e+01    2.322971e+00
  1.235535e+01    2.289897e+00
  1.246648e+01    2.312528e+00
  1.257761e+01    2.386836e+00
  1.268874e+01    2.495878e+00
  1.279987e+01    2.647531e+00
  1.291100e+01    3.269784e+00
  1.302213e+01    5.996946e+00
  1.313326e+01    1.479622e+01
  1.324438e+01    1.300246e+01
  1.335551e+01    4.672276e+00
  1.346664e+01    2.930238e+00
  1.357777e+01    2.454786e+00
  1.368890e+01    2.281045e+00
  1.380003e+01    2.183157e+00
  1.391116e+01    2.115133e+00
  1.402229e+01    2.008940e+00
  1.413342e+01    1.979958e+00
  1.424455e+01    1.962076e+00
  1.435568e+01    1.944929e+00
  1.446680e+01    1.941137e+00
  1.457793e+01    1.882583e+00
  1.468906e+01    1.873376e+00
  1.480019e+01    1.929204e+00
  1.491132e+01    2.004156e+00
  1.502245e+01    2.205532e+00
  1.513358e+01    3.404828e+00
  1.524471e+01    5.796189e+00
  1.535584e+01    4.097858e+00
  1.546697e+01    2.271385e+00
  1.557809e+01    1.869452e+00
  1.568922e+01    1.718772e+00
  1.580035e+01    1.698309e+00
  1.591148e+01    1.607289e+00
  1.602261e+01    1.604384e+00
  1.613374e+01    1.575580e+00
  1.624487e+01    1.562261e+00
  1.635600e+01    1.532009e+00
  1.646713e+01    1.510278e+00
  1.657826e+01    1.469864e+00
  1.668938e+01    1.475464e+00
  1.680051e+01    1.440640e+00
  1.691164e+01    1.420093e+00
  1.702277e+01    1.426414e+00
  1.713390e+01    1.393697e+00
  1.724503e+01    1.371606e+00
  1.735616e+01    1.336655e+00
  1.746729e+01    1.359700e+00
  1.757842e+01    1.336085e+00
  1.768955e+01    1.333069e+00
  1.780067e+01    1.305055e+00
  1.791180e+01    1.329123e+00
  1.802293e+01    1.284950e+00
  1.813406e+01    1.263649e+00
  1.824519e+01    1.269941e+00
  1.835632e+01    1.253649e+00
  1.846745e+01    1.231399e+00
  1.857858e+01    1.203840e+00
  1.868971e+01    1.209461e+00
  1.880084e+01    1.193264e+00
  1.891196e+01    1.182221e+00
  1.902309e+01    1.199268e+00
  1.913422e+01    1.209133e+00
  1.924535e+01    1.193060e+00
  1.935648e+01    1.149481e+00
  1.946761e+01    1.169236e+00
  1.957874e+01    1.145481e+00
  1.968987e+01    1.138732e+00
  1.980100e+01    1.147649e+00
  1.991213e+01    1.108329e+00
  2.002325e+01    1.126954e+00
  2.013438e+01    1.109858e+00
  2.024551e+01    1.094801e+00
  2.035664e+01    1.086938e+00
  2.046777e+01    1.054840e+00
  2.057890e+01    1.093411e+00
  2.069003e+01    1.063630e+00
  2.080116e+01    1.056654e+00
  2.091229e+01    1.074304e+00
  2.102342e+01    1.066937e+00
  2.113455e+01    1.088413e+00
  2.124567e+01    1.118710e+00
  2.135680e+01    1.154265e+00
  2.146793e+01    1.230155e+00
  2.157906e+01    1.417101e+00
  2.169019e+01    2.250560e+00
  2.180132e+01    5.344785e+00
  2.191245e+01    9.854172e+00
  2.202358e+01    4.354169e+00
  2.213471e+01    1.942453e+00
  2.224584e+01    1.344447e+00
  2.235696e+01    1.138212e+00
  2.246809e+01    1.041216e+00
  2.257922e+01    1.006285e+00
  2.269035e+01    9.327662e-01
  2.280148e+01    9.326975e-01
  2.291261e+01    9.239728e-01
  2.302374e+01    8.866911e-01
  2.313487e+01    8.750445e-01
  2.324600e+01    8.578092e-01
  2.335713e+01    8.678752e-01
  2.346825e+01    8.488408e-01
  2.357938e+01    8.190573e-01
  2.369051e+01    8.172545e-01
  2.380164e+01    8.291557e-01
  2.391277e+01    7.968809e-01
  2.402390e+01    7.904508e-01
  2.413503e+01    7.712818e-01
  2.424616e+01    7.848641e-01
  2.435729e+01    7.969212e-01
  2.446842e+01    7.797921e-01
  2.457954e+01    7.922786e-01
  2.469067e+01    7.905479e-01
  2.480180e+01    7.848377e-01
  2.491293e+01    7.766017e-01
  2.502406e+01    8.073514e-01
  2.513519e+01    8.176951e-01
  2.524632e+01    8.401110e-01
  2.535745e+01    8.595433e-01
  2.546858e+01    9.335691e-01
  2.557971e+01    1.070526e+00
  2.569083e+01    1.395498e+00
  2.580196e+01    2.441417e+00
  2.591309e+01    6.211848e+00
  2.602422e+01    7.041481e+00
  2.613535e+01    2.583547e+00
  2.624648e+01    1.407258e+00
  2.635761e+01    1.091281e+00
  2.646874e+01    9.632697e-01
  2.657987e+01    9.154848e-01
  2.669100e+01    8.972389e-01
  2.680212e+01    8.976133e-01
  2.691325e+01    9.207154e-01
  2.702438e+01    1.052235e+00
  2.713551e+01    1.558720e+00
  2.724664e+01    2.361730e+00
  2.735777e+01    1.418680e+00
  2.746890e+01    1.002949e+00
  2.758003e+01    8.755288e-01
  2.769116e+01    8.283507e-01
  2.780229e+01    7.934959e-01
  2.791342e+01    8.000795e-01
  2.802454e+01    7.849018e-01
  2.813567e+01    7.808557e-01
  2.824680e+01    7.706383e-01
  2.835793e+01    7.699836e-01
  2.846906e+01    7.649809e-01
  2.858019e+01    7.497803e-01
  2.869132e+01    7.521130e-01
  2.880245e+01    7.504601e-01
  2.891358e+01    7.369032e-01
  2.902471e+01    7.366226e-01
  2.913583e+01    7.330780e-01
  2.924696e+01    7.218673e-01
  2.935809e+01    7.413979e-01
  2.946922e+01    7.146726e-01
  2.958035e+01    7.298145e-01
  2.969148e+01    7.295786e-01
  2.980261e+01    7.187339e-01
  2.991374e+01    7.063079e-01
  3.002487e+01    7.327884e-01
  3.013600e+01    7.161435e-01
  3.024712e+01    7.224463e-01
  3.035825e+01    6.930845e-01
  3.046938e+01    7.008886e-01
  3.058051e+01    6.971915e-01
  3.069164e+01    6.996538e-01
  3.080277e+01    7.190844e-01
  3.091390e+01    6.985804e-01
  3.102503e+01    7.224849e-01
  3.113616e+01    7.140880e-01
  3.124729e+01    7.245574e-01
  3.135841e+01    7.170117e-01
  3.146954e+01    7.619450e-01
  3.158067e+01    7.997193e-01
  3.169180e+01    9.102020e-01
  3.180293e+01    1.335258e+00
  3.191406e+01    2.306616e+00
  3.202519e+01    1.619292e+00
  3.213632e+01    9.701456e-01
  3.224745e+01    7.851410e-01
  3.235858e+01    7.326735e-01
  3.246970e+01    7.036296e-01
  3.254908e+01    7.233160e-01

File: 2024-07-27_002_Ru-CGO-ex_Activtation_ramp_000002_data_000098.dat
# == pyFAI calibration ==
# Distance Sample to Detector: 0.4 m
# PONI: 9.750e-02, 1.135e-01 m
# Rotations: -0.000175 0.000000 -0.000000 rad
#
# == Fit2d calibration ==
# Distance Sample-beamCenter: 400.000 mm
# Center: x=1514.000, y=1300.000 pix
# Tilt: 0.010 deg  TiltPlanRot: 0.010 deg
#
# Detector Detector	 Spline= None	 PixelSize= 7.500e-05, 7.500e-05 m
#    Detector has a mask: False
#    Detector has a dark current: False
#    detector has a flat field: False
#
# Wavelength: 6.888e-11 m
# Mask applied: user provided
# Dark current applied: False
# Flat field applied: False
# Polarization factor: 0.99
# Normalization factor: 1.0
# --> /home/myspot/data/2024_07_Rosario/Ru-CGO-ex/2024-07-27_002_Ru-CGO-ex_Activtation_ramp_000002_data_000098.dat
#       q_nm^-1             I
  2.003187e-02    1.765032e-01
  1.311609e-01    4.037289e-02
  2.422899e-01    3.631722e-02
  3.534189e-01    1.533664e-02
  4.645479e-01    3.069974e-02
  5.756770e-01    2.991516e-02
  6.868060e-01    2.668871e-02
  7.979350e-01    1.838571e-01
  9.090640e-01    5.814263e-01
  1.020193e+00    1.096334e+00
  1.131322e+00    1.418858e+00
  1.242451e+00    2.220757e+00
  1.353580e+00    2.558972e+00
  1.464709e+00    2.725261e+00
  1.575838e+00    2.800012e+00
  1.686967e+00    2.884542e+00
  1.798096e+00    2.773130e+00
  1.909225e+00    2.781961e+00
  2.020354e+00    2.714335e+00
  2.131483e+00    2.692009e+00
  2.242612e+00    2.694395e+00
  2.353741e+00    2.686661e+00
  2.464870e+00    2.717163e+00
  2.575999e+00    2.676130e+00
  2.687128e+00    2.779211e+00
  2.798257e+00    2.761047e+00
  2.909386e+00    2.866938e+00
  3.020515e+00    2.959238e+00
  3.131644e+00    2.878258e+00
  3.242773e+00    2.806686e+00
  3.353902e+00    2.920448e+00
  3.465031e+00    2.960259e+00
  3.576160e+00    3.004273e+00
  3.687289e+00    2.800355e+00
  3.798418e+00    2.970205e+00
  3.909547e+00    2.888068e+00
  4.020676e+00    3.040783e+00
  4.131806e+00    2.994495e+00
  4.242935e+00    3.121507e+00
  4.354064e+00    3.143549e+00
  4.465193e+00    3.047587e+00
  4.576322e+00    3.032099e+00
  4.687451e+00    3.112529e+00
  4.798580e+00    3.169558e+00
  4.909709e+00    3.073369e+00
  5.020838e+00    3.092678e+00
  5.131967e+00    3.087129e+00
  5.243096e+00    3.115947e+00
  5.354225e+00    3.150246e+00
  5.465354e+00    3.139009e+00
  5.576483e+00    3.006266e+00
  5.687612e+00    2.992139e+00
  5.798741e+00    2.972908e+00
  5.909870e+00    3.050433e+00
  6.020999e+00    3.041434e+00
  6.132128e+00    3.015626e+00
  6.243257e+00    3.007827e+00
  6.354386e+00    3.014081e+00
  6.465515e+00    2.986523e+00
  6.576644e+00    3.017661e+00
  6.687773e+00    3.012080e+00
  6.798902e+00    2.935560e+00
  6.910031e+00    3.021313e+00
  7.021160e+00    3.014657e+00
  7.132289e+00    2.953020e+00
  7.243418e+00    2.939691e+00
  7.354547e+00    2.942470e+00
  7.465676e+00    2.895050e+00
  7.576805e+00    2.949574e+00
  7.687934e+00    2.935303e+00
  7.799063e+00    2.905000e+00
  7.910192e+00    2.930404e+00
  8.021321e+00    2.896817e+00
  8.132450e+00    2.928486e+00
  8.243579e+00    2.966406e+00
  8.354708e+00    2.831405e+00
  8.465837e+00    2.915307e+00
  8.576966e+00    2.824152e+00
  8.688095e+00    2.822741e+00
  8.799224e+00    2.822331e+00
  8.910353e+00    2.830839e+00
  9.021482e+00    2.730468e+00
  9.132611e+00    2.768568e+00
  9.243740e+00    2.770267e+00
  9.354869e+00    2.745779e+00
  9.465998e+00    2.654207e+00
  9.577127e+00    2.645048e+00
  9.688256e+00    2.684814e+00
  9.799385e+00    2.607503e+00
  9.910514e+00    2.648561e+00
  1.002164e+01    2.634104e+00
  1.013277e+01    2.622915e+00
  1.024390e+01    2.638167e+00
  1.035503e+01    2.587290e+00
  1.046616e+01    2.588265e+00
  1.057729e+01    2.573821e+00
  1.068842e+01    2.516028e+00
  1.079955e+01    2.483869e+00
  1.091068e+01    2.457956e+00
  1.102180e+01    2.484139e+00
  1.113293e+01    2.456368e+00
  1.124406e+01    2.419969e+00
  1.135519e+01    2.359583e+00
  1.146632e+01    2.368000e+00
  1.157745e+01    2.355118e+00
  1.168858e+01    2.375799e+00
  1.179971e+01    2.362149e+00
  1.191084e+01    2.324822e+00
  1.202197e+01    2.303424e+00
  1.213309e+01    2.287246e+00
  1.224422e+01    2.256154e+00
  1.235535e+01    2.306299e+00
  1.246648e+01    2.303825e+00
  1.257761e+01    2.325363e+00
  1.268874e+01    2.457460e+00
  1.279987e+01    2.631140e+00
  1.291100e+01    3.286289e+00
  1.302213e+01    5.951046e+00
  1.313326e+01    1.470757e+01
  1.324438e+01    1.317620e+01
  1.335551e+01    4.654422e+00
  1.346664e+01    2.939419e+00
  1.357777e+01    2.404976e+00
  1.368890e+01    2.281264e+00
  1.380003e+01    2.184216e+00
  1.391116e+01    2.090028e+00
  1.402229e+01    2.034714e+00
  1.413342e+01    1.992081e+00
  1.424455e+01    1.980083e+00
  1.435568e+01    1.940366e+00
  1.446680e+01    1.933684e+00
  1.457793e+01    1.956245e+00
  1.468906e+01    1.896023e+00
  1.480019e+01    1.871916e+00
  1.491132e+01    1.952701e+00
  1.502245e+01    2.190405e+00
  1.513358e+01    3.348067e+00
  1.524471e+01    5.813664e+00
  1.535584e+01    4.190956e+00
  1.546697e+01    2.310048e+00
  1.557809e+01    1.873595e+00
  1.568922e+01    1.749882e+00
  1.580035e+01    1.625280e+00
  1.591148e+01    1.631075e+00
  1.602261e+01    1.614756e+00
  1.613374e+01    1.556050e+00
  1.624487e+01    1.593230e+00
  1.635600e+01    1.527725e+00
  1.646713e+01    1.498940e+00
  1.657826e+01    1.457443e+00
  1.668938e+01    1.451627e+00
  1.680051e+01    1.456498e+00
  1.691164e+01    1.420319e+00
  1.702277e+01    1.404983e+00
  1.713390e+01    1.391065e+00
  1.724503e+01    1.388228e+00
  1.735616e+01    1.365774e+00
  1.746729e+01    1.371751e+00
  1.757842e+01    1.351648e+00
  1.768955e+01    1.343870e+00
  1.780067e+01    1.292985e+00
  1.791180e+01    1.276467e+00
  1.802293e+01    1.289010e+00
  1.813406e+01    1.300354e+00
  1.824519e+01    1.281658e+00
  1.835632e+01    1.247572e+00
  1.846745e+01    1.245322e+00
  1.857858e+01    1.223109e+00
  1.868971e+01    1.202490e+00
  1.880084e+01    1.193959e+00
  1.891196e+01    1.228844e+00
  1.902309e+01    1.173090e+00
  1.913422e+01    1.192646e+00
  1.924535e+01    1.163817e+00
  1.935648e+01    1.165633e+00
  1.946761e+01    1.170532e+00
  1.957874e+01    1.118179e+00
  1.968987e+01    1.135539e+00
  1.980100e+01    1.140091e+00
  1.991213e+01    1.085112e+00
  2.002325e+01    1.126619e+00
  2.013438e+01    1.069581e+00
  2.024551e+01    1.111656e+00
  2.035664e+01    1.082608e+00
  2.046777e+01    1.081041e+00
  2.057890e+01    1.089306e+00
  2.069003e+01    1.074105e+00
  2.080116e+01    1.108821e+00
  2.091229e+01    1.066003e+00
  2.102342e+01    1.072244e+00
  2.113455e+01    1.075374e+00
  2.124567e+01    1.084152e+00
  2.135680e+01    1.157692e+00
  2.146793e+01    1.219208e+00
  2.157906e+01    1.468388e+00
  2.169019e+01    2.226720e+00
  2.180132e+01    5.298116e+00
  2.191245e+01    9.865582e+00
  2.202358e+01    4.482842e+00
  2.213471e+01    1.950514e+00
  2.224584e+01    1.343037e+00
  2.235696e+01    1.140514e+00
  2.246809e+01    1.058165e+00
  2.257922e+01    9.861097e-01
  2.269035e+01    9.575582e-01
  2.280148e+01    9.576945e-01
  2.291261e+01    9.264265e-01
  2.302374e+01    8.853097e-01
  2.313487e+01    8.645732e-01
  2.324600e+01    8.713014e-01
  2.335713e+01    8.539613e-01
  2.346825e+01    8.505289e-01
  2.357938e+01    8.257669e-01
  2.369051e+01    8.268974e-01
  2.380164e+01    8.238345e-01
  2.391277e+01    7.822347e-01
  2.402390e+01    7.793859e-01
  2.413503e+01    7.839226e-01
  2.424616e+01    7.697646e-01
  2.435729e+01    7.865803e-01
  2.446842e+01    7.913687e-01
  2.457954e+01    7.876396e-01
  2.469067e+01    7.601988e-01
  2.480180e+01    7.943557e-01
  2.491293e+01    7.681090e-01
  2.502406e+01    7.935623e-01
  2.513519e+01    8.195530e-01
  2.524632e+01    8.584030e-01
  2.535745e+01    8.695590e-01
  2.546858e+01    9.411597e-01
  2.557971e+01    1.059972e+00
  2.569083e+01    1.370044e+00
  2.580196e+01    2.392077e+00
  2.591309e+01    6.051963e+00
  2.602422e+01    7.145492e+00
  2.613535e+01    2.641548e+00
  2.624648e+01    1.430225e+00
  2.635761e+01    1.075748e+00
  2.646874e+01    9.720545e-01
  2.657987e+01    9.182249e-01
  2.669100e+01    9.039551e-01
  2.680212e+01    9.070243e-01
  2.691325e+01    9.324481e-01
  2.702438e+01    1.038881e+00
  2.713551e+01    1.539205e+00
  2.724664e+01    2.405276e+00
  2.735777e+01    1.443953e+00
  2.746890e+01    9.793338e-01
  2.758003e+01    8.730320e-01
  2.769116e+01    8.488745e-01
  2.780229e+01    8.020499e-01
  2.791342e+01    7.858638e-01
  2.802454e+01    7.898656e-01
  2.813567e+01    7.974636e-01
  2.824680e+01    7.571215e-01
  2.835793e+01    7.548375e-01
  2.846906e+01    7.556296e-01
  2.858019e+01    7.599948e-01
  2.869132e+01    7.504222e-01
  2.880245e+01    7.457476e-01
  2.891358e+01    7.402641e-01
  2.902471e+01    7.459227e-01
  2.913583e+01    7.264646e-01
  2.924696e+01    7.254074e-01
  2.935809e+01    7.274544e-01
  2.946922e+01    7.319453e-01
  2.958035e+01    7.154202e-01
  2.969148e+01    7.008991e-01
  2.980261e+01    7.005986e-01
  2.991374e+01    7.015911e-01
  3.002487e+01    7.106968e-01
  3.013600e+01    7.055852e-01
  3.024712e+01    7.118450e-01
  3.035825e+01    6.989221e-01
  3.046938e+01    7.210987e-01
  3.058051e+01    7.315200e-01
  3.069164e+01    7.243816e-01
  3.080277e+01    7.088639e-01
  3.091390e+01    7.013717e-01
  3.102503e+01    7.132858e-01
  3.113616e+01    7.104131e-01
  3.124729e+01    7.321846e-01
  3.135841e+01    7.226216e-01
  3.146954e+01    7.455290e-01
  3.158067e+01    8.121402e-01
  3.169180e+01    8.842750e-01
  3.180293e+01    1.294031e+00
  3.191406e+01    2.282785e+00
  3.202519e+01    1.621372e+00
  3.213632e+01    9.736658e-01
  3.224745e+01    8.111388e-01
  3.235858e+01    7.507301e-01
  3.246970e+01    7.133989e-01
  3.254908e+01    7.387182e-01