Folder: myspot_2024_07/XRD (part 36)

File: 2024-07-27_002_Ru-CGO-ex_Activtation_ramp_000002_data_000156.dat
# == pyFAI calibration ==
# Distance Sample to Detector: 0.4 m
# PONI: 9.750e-02, 1.135e-01 m
# Rotations: -0.000175 0.000000 -0.000000 rad
#
# == Fit2d calibration ==
# Distance Sample-beamCenter: 400.000 mm
# Center: x=1514.000, y=1300.000 pix
# Tilt: 0.010 deg  TiltPlanRot: 0.010 deg
#
# Detector Detector	 Spline= None	 PixelSize= 7.500e-05, 7.500e-05 m
#    Detector has a mask: False
#    Detector has a dark current: False
#    detector has a flat field: False
#
# Wavelength: 6.888e-11 m
# Mask applied: user provided
# Dark current applied: False
# Flat field applied: False
# Polarization factor: 0.99
# Normalization factor: 1.0
# --> /home/myspot/data/2024_07_Rosario/Ru-CGO-ex/2024-07-27_002_Ru-CGO-ex_Activtation_ramp_000002_data_000156.dat
#       q_nm^-1             I
  2.003187e-02    0.000000e+00
  1.311609e-01    6.152998e-02
  2.422899e-01    8.584212e-03
  3.534189e-01    1.109220e-02
  4.645479e-01    3.313419e-02
  5.756770e-01    4.639519e-02
  6.868060e-01    3.062577e-02
  7.979350e-01    1.444489e-01
  9.090640e-01    5.009699e-01
  1.020193e+00    1.147138e+00
  1.131322e+00    1.478456e+00
  1.242451e+00    2.192921e+00
  1.353580e+00    2.426436e+00
  1.464709e+00    2.700347e+00
  1.575838e+00    2.859117e+00
  1.686967e+00    2.832376e+00
  1.798096e+00    2.678277e+00
  1.909225e+00    2.659627e+00
  2.020354e+00    2.669864e+00
  2.131483e+00    2.697341e+00
  2.242612e+00    2.734158e+00
  2.353741e+00    2.725889e+00
  2.464870e+00    2.689044e+00
  2.575999e+00    2.719111e+00
  2.687128e+00    2.813505e+00
  2.798257e+00    2.797095e+00
  2.909386e+00    2.914693e+00
  3.020515e+00    2.985433e+00
  3.131644e+00    2.876173e+00
  3.242773e+00    2.883806e+00
  3.353902e+00    2.974898e+00
  3.465031e+00    2.992285e+00
  3.576160e+00    2.982814e+00
  3.687289e+00    3.008451e+00
  3.798418e+00    3.001257e+00
  3.909547e+00    2.986091e+00
  4.020676e+00    3.029605e+00
  4.131806e+00    2.986365e+00
  4.242935e+00    3.121097e+00
  4.354064e+00    3.080919e+00
  4.465193e+00    3.085428e+00
  4.576322e+00    3.109985e+00
  4.687451e+00    3.105641e+00
  4.798580e+00    3.162568e+00
  4.909709e+00    3.048236e+00
  5.020838e+00    3.210537e+00
  5.131967e+00    3.152478e+00
  5.243096e+00    3.103956e+00
  5.354225e+00    3.096712e+00
  5.465354e+00    3.096617e+00
  5.576483e+00    3.137919e+00
  5.687612e+00    3.150214e+00
  5.798741e+00    3.059583e+00
  5.909870e+00    3.070120e+00
  6.020999e+00    3.085723e+00
  6.132128e+00    3.015663e+00
  6.243257e+00    3.071490e+00
  6.354386e+00    3.075919e+00
  6.465515e+00    3.120426e+00
  6.576644e+00    2.937556e+00
  6.687773e+00    3.010375e+00
  6.798902e+00    3.066989e+00
  6.910031e+00    2.984762e+00
  7.021160e+00    3.042332e+00
  7.132289e+00    3.031264e+00
  7.243418e+00    3.017087e+00
  7.354547e+00    2.977560e+00
  7.465676e+00    3.013423e+00
  7.576805e+00    2.938565e+00
  7.687934e+00    2.926270e+00
  7.799063e+00    2.913492e+00
  7.910192e+00    2.913160e+00
  8.021321e+00    2.894397e+00
  8.132450e+00    2.981760e+00
  8.243579e+00    2.967301e+00
  8.354708e+00    2.926908e+00
  8.465837e+00    2.944449e+00
  8.576966e+00    2.819042e+00
  8.688095e+00    2.897157e+00
  8.799224e+00    2.895490e+00
  8.910353e+00    2.851681e+00
  9.021482e+00    2.809190e+00
  9.132611e+00    2.865904e+00
  9.243740e+00    2.786525e+00
  9.354869e+00    2.821457e+00
  9.465998e+00    2.754017e+00
  9.577127e+00    2.754547e+00
  9.688256e+00    2.723572e+00
  9.799385e+00    2.765237e+00
  9.910514e+00    2.670700e+00
  1.002164e+01    2.684585e+00
  1.013277e+01    2.717221e+00
  1.024390e+01    2.644058e+00
  1.035503e+01    2.617509e+00
  1.046616e+01    2.566815e+00
  1.057729e+01    2.534924e+00
  1.068842e+01    2.568789e+00
  1.079955e+01    2.527041e+00
  1.091068e+01    2.537498e+00
  1.102180e+01    2.515401e+00
  1.113293e+01    2.483730e+00
  1.124406e+01    2.447282e+00
  1.135519e+01    2.416471e+00
  1.146632e+01    2.425163e+00
  1.157745e+01    2.414820e+00
  1.168858e+01    2.408749e+00
  1.179971e+01    2.361115e+00
  1.191084e+01    2.333827e+00
  1.202197e+01    2.337960e+00
  1.213309e+01    2.338035e+00
  1.224422e+01    2.337529e+00
  1.235535e+01    2.376654e+00
  1.246648e+01    2.350394e+00
  1.257761e+01    2.391557e+00
  1.268874e+01    2.498123e+00
  1.279987e+01    2.675551e+00
  1.291100e+01    3.325114e+00
  1.302213e+01    6.242005e+00
  1.313326e+01    1.437193e+01
  1.324438e+01    1.103457e+01
  1.335551e+01    4.232202e+00
  1.346664e+01    2.847190e+00
  1.357777e+01    2.375010e+00
  1.368890e+01    2.261389e+00
  1.380003e+01    2.222333e+00
  1.391116e+01    2.102215e+00
  1.402229e+01    2.081183e+00
  1.413342e+01    2.053254e+00
  1.424455e+01    1.991299e+00
  1.435568e+01    1.987725e+00
  1.446680e+01    1.933580e+00
  1.457793e+01    1.966329e+00
  1.468906e+01    1.895086e+00
  1.480019e+01    1.934020e+00
  1.491132e+01    1.973572e+00
  1.502245e+01    2.197265e+00
  1.513358e+01    3.467945e+00
  1.524471e+01    5.599596e+00
  1.535584e+01    3.631558e+00
  1.546697e+01    2.181665e+00
  1.557809e+01    1.894908e+00
  1.568922e+01    1.755702e+00
  1.580035e+01    1.713275e+00
  1.591148e+01    1.639252e+00
  1.602261e+01    1.635205e+00
  1.613374e+01    1.562906e+00
  1.624487e+01    1.583315e+00
  1.635600e+01    1.556115e+00
  1.646713e+01    1.528701e+00
  1.657826e+01    1.471097e+00
  1.668938e+01    1.515443e+00
  1.680051e+01    1.456498e+00
  1.691164e+01    1.459795e+00
  1.702277e+01    1.465167e+00
  1.713390e+01    1.431150e+00
  1.724503e+01    1.405417e+00
  1.735616e+01    1.391948e+00
  1.746729e+01    1.397085e+00
  1.757842e+01    1.360971e+00
  1.768955e+01    1.341064e+00
  1.780067e+01    1.316358e+00
  1.791180e+01    1.320102e+00
  1.802293e+01    1.306014e+00
  1.813406e+01    1.304303e+00
  1.824519e+01    1.268243e+00
  1.835632e+01    1.297277e+00
  1.846745e+01    1.286158e+00
  1.857858e+01    1.225627e+00
  1.868971e+01    1.234455e+00
  1.880084e+01    1.223045e+00
  1.891196e+01    1.235353e+00
  1.902309e+01    1.192550e+00
  1.913422e+01    1.194805e+00
  1.924535e+01    1.165868e+00
  1.935648e+01    1.206325e+00
  1.946761e+01    1.162787e+00
  1.957874e+01    1.155568e+00
  1.968987e+01    1.160418e+00
  1.980100e+01    1.146860e+00
  1.991213e+01    1.131563e+00
  2.002325e+01    1.132512e+00
  2.013438e+01    1.126137e+00
  2.024551e+01    1.117112e+00
  2.035664e+01    1.106156e+00
  2.046777e+01    1.075930e+00
  2.057890e+01    1.080552e+00
  2.069003e+01    1.076676e+00
  2.080116e+01    1.062383e+00
  2.091229e+01    1.071300e+00
  2.102342e+01    1.103026e+00
  2.113455e+01    1.078175e+00
  2.124567e+01    1.093210e+00
  2.135680e+01    1.127618e+00
  2.146793e+01    1.231292e+00
  2.157906e+01    1.447972e+00
  2.169019e+01    2.351239e+00
  2.180132e+01    5.556083e+00
  2.191245e+01    8.977194e+00
  2.202358e+01    3.628032e+00
  2.213471e+01    1.766338e+00
  2.224584e+01    1.279728e+00
  2.235696e+01    1.103541e+00
  2.246809e+01    1.012245e+00
  2.257922e+01    1.018792e+00
  2.269035e+01    9.687881e-01
  2.280148e+01    9.151906e-01
  2.291261e+01    9.143444e-01
  2.302374e+01    9.105155e-01
  2.313487e+01    8.853629e-01
  2.324600e+01    8.692226e-01
  2.335713e+01    8.698924e-01
  2.346825e+01    8.604010e-01
  2.357938e+01    8.510267e-01
  2.369051e+01    8.200064e-01
  2.380164e+01    8.161885e-01
  2.391277e+01    7.980145e-01
  2.402390e+01    7.969246e-01
  2.413503e+01    7.683165e-01
  2.424616e+01    7.706863e-01
  2.435729e+01    7.923841e-01
  2.446842e+01    7.889223e-01
  2.457954e+01    8.107499e-01
  2.469067e+01    8.094461e-01
  2.480180e+01    7.879780e-01
  2.491293e+01    8.044211e-01
  2.502406e+01    7.971600e-01
  2.513519e+01    7.980658e-01
  2.524632e+01    8.618634e-01
  2.535745e+01    8.778235e-01
  2.546858e+01    9.426855e-01
  2.557971e+01    1.088240e+00
  2.569083e+01    1.415808e+00
  2.580196e+01    2.686354e+00
  2.591309e+01    6.328302e+00
  2.602422e+01    5.667827e+00
  2.613535e+01    2.177761e+00
  2.624648e+01    1.274773e+00
  2.635761e+01    1.035855e+00
  2.646874e+01    9.359641e-01
  2.657987e+01    9.021670e-01
  2.669100e+01    8.861029e-01
  2.680212e+01    8.694220e-01
  2.691325e+01    9.059092e-01
  2.702438e+01    1.065304e+00
  2.713551e+01    1.648372e+00
  2.724664e+01    2.159268e+00
  2.735777e+01    1.257362e+00
  2.746890e+01    9.446009e-01
  2.758003e+01    8.649175e-01
  2.769116e+01    8.266022e-01
  2.780229e+01    8.142048e-01
  2.791342e+01    7.884868e-01
  2.802454e+01    7.641301e-01
  2.813567e+01    7.894354e-01
  2.824680e+01    7.642576e-01
  2.835793e+01    7.608287e-01
  2.846906e+01    7.617390e-01
  2.858019e+01    7.516207e-01
  2.869132e+01    7.317477e-01
  2.880245e+01    7.540773e-01
  2.891358e+01    7.505609e-01
  2.902471e+01    7.305576e-01
  2.913583e+01    7.446398e-01
  2.924696e+01    7.367039e-01
  2.935809e+01    7.253222e-01
  2.946922e+01    7.106620e-01
  2.958035e+01    7.382356e-01
  2.969148e+01    7.151129e-01
  2.980261e+01    7.303821e-01
  2.991374e+01    7.321930e-01
  3.002487e+01    7.104561e-01
  3.013600e+01    7.034820e-01
  3.024712e+01    7.221555e-01
  3.035825e+01    7.110197e-01
  3.046938e+01    7.134478e-01
  3.058051e+01    7.194335e-01
  3.069164e+01    7.161373e-01
  3.080277e+01    6.962002e-01
  3.091390e+01    7.374908e-01
  3.102503e+01    7.215692e-01
  3.113616e+01    7.367227e-01
  3.124729e+01    7.240000e-01
  3.135841e+01    7.374855e-01
  3.146954e+01    7.739785e-01
  3.158067e+01    8.153929e-01
  3.169180e+01    9.324058e-01
  3.180293e+01    1.401098e+00
  3.191406e+01    2.192999e+00
  3.202519e+01    1.361402e+00
  3.213632e+01    8.909791e-01
  3.224745e+01    7.793658e-01
  3.235858e+01    7.473971e-01
  3.246970e+01    7.175499e-01
  3.254908e+01    7.207035e-01

File: 2024-07-27_002_Ru-CGO-ex_Activtation_ramp_000002_data_000157.dat
# == pyFAI calibration ==
# Distance Sample to Detector: 0.4 m
# PONI: 9.750e-02, 1.135e-01 m
# Rotations: -0.000175 0.000000 -0.000000 rad
#
# == Fit2d calibration ==
# Distance Sample-beamCenter: 400.000 mm
# Center: x=1514.000, y=1300.000 pix
# Tilt: 0.010 deg  TiltPlanRot: 0.010 deg
#
# Detector Detector	 Spline= None	 PixelSize= 7.500e-05, 7.500e-05 m
#    Detector has a mask: False
#    Detector has a dark current: False
#    detector has a flat field: False
#
# Wavelength: 6.888e-11 m
# Mask applied: user provided
# Dark current applied: False
# Flat field applied: False
# Polarization factor: 0.99
# Normalization factor: 1.0
# --> /home/myspot/data/2024_07_Rosario/Ru-CGO-ex/2024-07-27_002_Ru-CGO-ex_Activtation_ramp_000002_data_000157.dat
#       q_nm^-1             I
  2.003187e-02    0.000000e+00
  1.311609e-01    4.337301e-02
  2.422899e-01    1.428251e-02
  3.534189e-01    3.630657e-02
  4.645479e-01    2.549582e-02
  5.756770e-01    4.993356e-02
  6.868060e-01    1.625404e-02
  7.979350e-01    1.440145e-01
  9.090640e-01    5.572349e-01
  1.020193e+00    1.050436e+00
  1.131322e+00    1.546790e+00
  1.242451e+00    2.374012e+00
  1.353580e+00    2.712628e+00
  1.464709e+00    2.580422e+00
  1.575838e+00    2.930675e+00
  1.686967e+00    2.798424e+00
  1.798096e+00    2.853822e+00
  1.909225e+00    2.754647e+00
  2.020354e+00    2.748045e+00
  2.131483e+00    2.751704e+00
  2.242612e+00    2.630712e+00
  2.353741e+00    2.733296e+00
  2.464870e+00    2.696288e+00
  2.575999e+00    2.750694e+00
  2.687128e+00    2.785265e+00
  2.798257e+00    2.766292e+00
  2.909386e+00    2.812577e+00
  3.020515e+00    2.838757e+00
  3.131644e+00    2.846110e+00
  3.242773e+00    2.909180e+00
  3.353902e+00    2.914792e+00
  3.465031e+00    2.925567e+00
  3.576160e+00    3.041631e+00
  3.687289e+00    3.015030e+00
  3.798418e+00    2.991733e+00
  3.909547e+00    3.007255e+00
  4.020676e+00    2.985359e+00
  4.131806e+00    3.039646e+00
  4.242935e+00    2.964518e+00
  4.354064e+00    3.012926e+00
  4.465193e+00    3.082770e+00
  4.576322e+00    3.120678e+00
  4.687451e+00    3.100908e+00
  4.798580e+00    3.084880e+00
  4.909709e+00    3.166761e+00
  5.020838e+00    3.214134e+00
  5.131967e+00    3.123966e+00
  5.243096e+00    3.192660e+00
  5.354225e+00    3.158293e+00
  5.465354e+00    3.033775e+00
  5.576483e+00    3.114534e+00
  5.687612e+00    3.081810e+00
  5.798741e+00    3.027298e+00
  5.909870e+00    3.020813e+00
  6.020999e+00    2.996144e+00
  6.132128e+00    3.120703e+00
  6.243257e+00    3.020059e+00
  6.354386e+00    3.123744e+00
  6.465515e+00    3.084507e+00
  6.576644e+00    3.045501e+00
  6.687773e+00    3.027915e+00
  6.798902e+00    3.075449e+00
  6.910031e+00    3.003706e+00
  7.021160e+00    3.002414e+00
  7.132289e+00    3.004836e+00
  7.243418e+00    3.060722e+00
  7.354547e+00    2.911016e+00
  7.465676e+00    2.935130e+00
  7.576805e+00    2.926749e+00
  7.687934e+00    3.003003e+00
  7.799063e+00    2.883125e+00
  7.910192e+00    2.982402e+00
  8.021321e+00    2.943589e+00
  8.132450e+00    2.973234e+00
  8.243579e+00    2.987101e+00
  8.354708e+00    2.892350e+00
  8.465837e+00    2.879453e+00
  8.576966e+00    2.830275e+00
  8.688095e+00    2.861436e+00
  8.799224e+00    2.851559e+00
  8.910353e+00    2.873988e+00
  9.021482e+00    2.793290e+00
  9.132611e+00    2.924627e+00
  9.243740e+00    2.815315e+00
  9.354869e+00    2.751143e+00
  9.465998e+00    2.824911e+00
  9.577127e+00    2.728029e+00
  9.688256e+00    2.736599e+00
  9.799385e+00    2.737686e+00
  9.910514e+00    2.730028e+00
  1.002164e+01    2.697673e+00
  1.013277e+01    2.641784e+00
  1.024390e+01    2.624449e+00
  1.035503e+01    2.625002e+00
  1.046616e+01    2.596435e+00
  1.057729e+01    2.575363e+00
  1.068842e+01    2.609746e+00
  1.079955e+01    2.475242e+00
  1.091068e+01    2.526790e+00
  1.102180e+01    2.512856e+00
  1.113293e+01    2.501603e+00
  1.124406e+01    2.469543e+00
  1.135519e+01    2.430247e+00
  1.146632e+01    2.467228e+00
  1.157745e+01    2.409327e+00
  1.168858e+01    2.409916e+00
  1.179971e+01    2.381776e+00
  1.191084e+01    2.345140e+00
  1.202197e+01    2.318201e+00
  1.213309e+01    2.350356e+00
  1.224422e+01    2.321580e+00
  1.235535e+01    2.334918e+00
  1.246648e+01    2.368067e+00
  1.257761e+01    2.352379e+00
  1.268874e+01    2.469722e+00
  1.279987e+01    2.712414e+00
  1.291100e+01    3.296387e+00
  1.302213e+01    6.262770e+00
  1.313326e+01    1.443684e+01
  1.324438e+01    1.103705e+01
  1.335551e+01    4.225260e+00
  1.346664e+01    2.801385e+00
  1.357777e+01    2.443801e+00
  1.368890e+01    2.274453e+00
  1.380003e+01    2.173954e+00
  1.391116e+01    2.108138e+00
  1.402229e+01    2.014647e+00
  1.413342e+01    2.060071e+00
  1.424455e+01    2.006253e+00
  1.435568e+01    1.988610e+00
  1.446680e+01    1.906720e+00
  1.457793e+01    1.878412e+00
  1.468906e+01    1.872105e+00
  1.480019e+01    1.904550e+00
  1.491132e+01    2.002335e+00
  1.502245e+01    2.253972e+00
  1.513358e+01    3.439376e+00
  1.524471e+01    5.573786e+00
  1.535584e+01    3.655000e+00
  1.546697e+01    2.193120e+00
  1.557809e+01    1.893579e+00
  1.568922e+01    1.736741e+00
  1.580035e+01    1.650393e+00
  1.591148e+01    1.601341e+00
  1.602261e+01    1.577538e+00
  1.613374e+01    1.608966e+00
  1.624487e+01    1.586120e+00
  1.635600e+01    1.510806e+00
  1.646713e+01    1.526759e+00
  1.657826e+01    1.477353e+00
  1.668938e+01    1.458339e+00
  1.680051e+01    1.468962e+00
  1.691164e+01    1.434024e+00
  1.702277e+01    1.419640e+00
  1.713390e+01    1.405869e+00
  1.724503e+01    1.405919e+00
  1.735616e+01    1.405361e+00
  1.746729e+01    1.379806e+00
  1.757842e+01    1.341428e+00
  1.768955e+01    1.313830e+00
  1.780067e+01    1.349264e+00
  1.791180e+01    1.328850e+00
  1.802293e+01    1.296243e+00
  1.813406e+01    1.295151e+00
  1.824519e+01    1.277852e+00
  1.835632e+01    1.275854e+00
  1.846745e+01    1.244173e+00
  1.857858e+01    1.244382e+00
  1.868971e+01    1.241726e+00
  1.880084e+01    1.257866e+00
  1.891196e+01    1.197365e+00
  1.902309e+01    1.210068e+00
  1.913422e+01    1.173783e+00
  1.924535e+01    1.173653e+00
  1.935648e+01    1.140012e+00
  1.946761e+01    1.169334e+00
  1.957874e+01    1.163900e+00
  1.968987e+01    1.151821e+00
  1.980100e+01    1.121092e+00
  1.991213e+01    1.116669e+00
  2.002325e+01    1.116823e+00
  2.013438e+01    1.131155e+00
  2.024551e+01    1.092581e+00
  2.035664e+01    1.088122e+00
  2.046777e+01    1.103182e+00
  2.057890e+01    1.085694e+00
  2.069003e+01    1.091296e+00
  2.080116e+01    1.088622e+00
  2.091229e+01    1.079551e+00
  2.102342e+01    1.063000e+00
  2.113455e+01    1.073816e+00
  2.124567e+01    1.104601e+00
  2.135680e+01    1.149225e+00
  2.146793e+01    1.233867e+00
  2.157906e+01    1.487168e+00
  2.169019e+01    2.351576e+00
  2.180132e+01    5.591753e+00
  2.191245e+01    9.072638e+00
  2.202358e+01    3.557618e+00
  2.213471e+01    1.764044e+00
  2.224584e+01    1.246003e+00
  2.235696e+01    1.119041e+00
  2.246809e+01    1.048516e+00
  2.257922e+01    9.847859e-01
  2.269035e+01    9.622846e-01
  2.280148e+01    9.341580e-01
  2.291261e+01    8.982933e-01
  2.302374e+01    8.976029e-01
  2.313487e+01    8.934885e-01
  2.324600e+01    8.683565e-01
  2.335713e+01    8.523455e-01
  2.346825e+01    8.705336e-01
  2.357938e+01    8.474148e-01
  2.369051e+01    8.279831e-01
  2.380164e+01    8.344295e-01
  2.391277e+01    8.065062e-01
  2.402390e+01    8.085372e-01
  2.413503e+01    7.912426e-01
  2.424616e+01    7.673156e-01
  2.435729e+01    7.838645e-01
  2.446842e+01    7.970287e-01
  2.457954e+01    8.133399e-01
  2.469067e+01    7.728819e-01
  2.480180e+01    7.932674e-01
  2.491293e+01    7.765453e-01
  2.502406e+01    8.071988e-01
  2.513519e+01    8.230168e-01
  2.524632e+01    8.431716e-01
  2.535745e+01    8.826400e-01
  2.546858e+01    9.366555e-01
  2.557971e+01    1.071666e+00
  2.569083e+01    1.416395e+00
  2.580196e+01    2.718664e+00
  2.591309e+01    6.319192e+00
  2.602422e+01    5.629220e+00
  2.613535e+01    2.132678e+00
  2.624648e+01    1.281588e+00
  2.635761e+01    1.024829e+00
  2.646874e+01    9.571366e-01
  2.657987e+01    8.967183e-01
  2.669100e+01    8.966449e-01
  2.680212e+01    8.991614e-01
  2.691325e+01    9.211902e-01
  2.702438e+01    1.057675e+00
  2.713551e+01    1.643350e+00
  2.724664e+01    2.169293e+00
  2.735777e+01    1.260160e+00
  2.746890e+01    9.577088e-01
  2.758003e+01    8.642813e-01
  2.769116e+01    8.197925e-01
  2.780229e+01    8.009210e-01
  2.791342e+01    7.988478e-01
  2.802454e+01    7.970828e-01
  2.813567e+01    7.920870e-01
  2.824680e+01    7.624879e-01
  2.835793e+01    7.835676e-01
  2.846906e+01    7.722091e-01
  2.858019e+01    7.642221e-01
  2.869132e+01    7.679766e-01
  2.880245e+01    7.423703e-01
  2.891358e+01    7.499143e-01
  2.902471e+01    7.338148e-01
  2.913583e+01    7.041214e-01
  2.924696e+01    7.225905e-01
  2.935809e+01    7.362173e-01
  2.946922e+01    7.412713e-01
  2.958035e+01    7.223070e-01
  2.969148e+01    7.111544e-01
  2.980261e+01    7.170250e-01
  2.991374e+01    7.227436e-01
  3.002487e+01    7.330722e-01
  3.013600e+01    7.159057e-01
  3.024712e+01    7.032322e-01
  3.035825e+01    7.038054e-01
  3.046938e+01    7.089880e-01
  3.058051e+01    7.214170e-01
  3.069164e+01    6.997542e-01
  3.080277e+01    7.118062e-01
  3.091390e+01    7.155668e-01
  3.102503e+01    7.382349e-01
  3.113616e+01    7.439283e-01
  3.124729e+01    7.088447e-01
  3.135841e+01    7.204928e-01
  3.146954e+01    7.426865e-01
  3.158067e+01    7.984139e-01
  3.169180e+01    9.322675e-01
  3.180293e+01    1.434128e+00
  3.191406e+01    2.184772e+00
  3.202519e+01    1.327485e+00
  3.213632e+01    9.097906e-01
  3.224745e+01    7.752053e-01
  3.235858e+01    7.542591e-01
  3.246970e+01    7.283201e-01
  3.254908e+01    7.158752e-01