Folder: myspot_2024_07/XRD (part 14)

File: 2024-07-27_002_Ru-CGO-ex_Activtation_ramp_000002_data_000049.dat
# == pyFAI calibration ==
# Distance Sample to Detector: 0.4 m
# PONI: 9.750e-02, 1.135e-01 m
# Rotations: -0.000175 0.000000 -0.000000 rad
#
# == Fit2d calibration ==
# Distance Sample-beamCenter: 400.000 mm
# Center: x=1514.000, y=1300.000 pix
# Tilt: 0.010 deg  TiltPlanRot: 0.010 deg
#
# Detector Detector	 Spline= None	 PixelSize= 7.500e-05, 7.500e-05 m
#    Detector has a mask: False
#    Detector has a dark current: False
#    detector has a flat field: False
#
# Wavelength: 6.888e-11 m
# Mask applied: user provided
# Dark current applied: False
# Flat field applied: False
# Polarization factor: 0.99
# Normalization factor: 1.0
# --> /home/myspot/data/2024_07_Rosario/Ru-CGO-ex/2024-07-27_002_Ru-CGO-ex_Activtation_ramp_000002_data_000049.dat
#       q_nm^-1             I
  2.003187e-02    0.000000e+00
  1.311609e-01    1.036885e-01
  2.422899e-01    2.026723e-02
  3.534189e-01    8.614141e-03
  4.645479e-01    4.222864e-02
  5.756770e-01    4.490042e-02
  6.868060e-01    7.338084e-03
  7.979350e-01    1.242905e-01
  9.090640e-01    6.331065e-01
  1.020193e+00    1.083484e+00
  1.131322e+00    1.403334e+00
  1.242451e+00    2.177588e+00
  1.353580e+00    2.742029e+00
  1.464709e+00    2.822176e+00
  1.575838e+00    3.073495e+00
  1.686967e+00    2.916128e+00
  1.798096e+00    2.792010e+00
  1.909225e+00    2.717333e+00
  2.020354e+00    2.847559e+00
  2.131483e+00    2.770249e+00
  2.242612e+00    2.829883e+00
  2.353741e+00    2.820701e+00
  2.464870e+00    2.817274e+00
  2.575999e+00    2.790956e+00
  2.687128e+00    2.801059e+00
  2.798257e+00    2.906598e+00
  2.909386e+00    2.886995e+00
  3.020515e+00    2.914358e+00
  3.131644e+00    2.945279e+00
  3.242773e+00    2.825695e+00
  3.353902e+00    2.853883e+00
  3.465031e+00    2.990931e+00
  3.576160e+00    3.004573e+00
  3.687289e+00    3.019777e+00
  3.798418e+00    3.056881e+00
  3.909547e+00    3.012104e+00
  4.020676e+00    3.004258e+00
  4.131806e+00    2.970769e+00
  4.242935e+00    3.039160e+00
  4.354064e+00    3.003332e+00
  4.465193e+00    3.019882e+00
  4.576322e+00    3.057226e+00
  4.687451e+00    3.112331e+00
  4.798580e+00    3.118449e+00
  4.909709e+00    3.207647e+00
  5.020838e+00    3.067778e+00
  5.131967e+00    3.067379e+00
  5.243096e+00    3.186585e+00
  5.354225e+00    3.192511e+00
  5.465354e+00    3.098376e+00
  5.576483e+00    3.106187e+00
  5.687612e+00    3.064752e+00
  5.798741e+00    3.008487e+00
  5.909870e+00    3.022621e+00
  6.020999e+00    3.071996e+00
  6.132128e+00    3.120657e+00
  6.243257e+00    3.047629e+00
  6.354386e+00    3.043965e+00
  6.465515e+00    3.003140e+00
  6.576644e+00    3.034573e+00
  6.687773e+00    3.042286e+00
  6.798902e+00    3.036355e+00
  6.910031e+00    3.057214e+00
  7.021160e+00    2.955611e+00
  7.132289e+00    3.044575e+00
  7.243418e+00    2.973877e+00
  7.354547e+00    3.004762e+00
  7.465676e+00    3.030483e+00
  7.576805e+00    2.984669e+00
  7.687934e+00    2.944170e+00
  7.799063e+00    2.861727e+00
  7.910192e+00    2.927770e+00
  8.021321e+00    2.912383e+00
  8.132450e+00    2.926878e+00
  8.243579e+00    2.970585e+00
  8.354708e+00    2.884597e+00
  8.465837e+00    2.906878e+00
  8.576966e+00    2.822678e+00
  8.688095e+00    2.902122e+00
  8.799224e+00    2.853739e+00
  8.910353e+00    2.842364e+00
  9.021482e+00    2.859110e+00
  9.132611e+00    2.790290e+00
  9.243740e+00    2.766767e+00
  9.354869e+00    2.742584e+00
  9.465998e+00    2.743660e+00
  9.577127e+00    2.736744e+00
  9.688256e+00    2.696829e+00
  9.799385e+00    2.673273e+00
  9.910514e+00    2.681504e+00
  1.002164e+01    2.712845e+00
  1.013277e+01    2.626048e+00
  1.024390e+01    2.615920e+00
  1.035503e+01    2.619940e+00
  1.046616e+01    2.596262e+00
  1.057729e+01    2.556112e+00
  1.068842e+01    2.550458e+00
  1.079955e+01    2.538770e+00
  1.091068e+01    2.465723e+00
  1.102180e+01    2.510096e+00
  1.113293e+01    2.456786e+00
  1.124406e+01    2.412211e+00
  1.135519e+01    2.446320e+00
  1.146632e+01    2.412781e+00
  1.157745e+01    2.348753e+00
  1.168858e+01    2.336686e+00
  1.179971e+01    2.331003e+00
  1.191084e+01    2.338142e+00
  1.202197e+01    2.314254e+00
  1.213309e+01    2.299140e+00
  1.224422e+01    2.337018e+00
  1.235535e+01    2.318983e+00
  1.246648e+01    2.297876e+00
  1.257761e+01    2.388772e+00
  1.268874e+01    2.457394e+00
  1.279987e+01    2.647724e+00
  1.291100e+01    3.308511e+00
  1.302213e+01    5.856852e+00
  1.313326e+01    1.487257e+01
  1.324438e+01    1.521799e+01
  1.335551e+01    5.181467e+00
  1.346664e+01    3.069270e+00
  1.357777e+01    2.527652e+00
  1.368890e+01    2.279752e+00
  1.380003e+01    2.211889e+00
  1.391116e+01    2.121582e+00
  1.402229e+01    2.082276e+00
  1.413342e+01    2.002049e+00
  1.424455e+01    1.996266e+00
  1.435568e+01    1.930238e+00
  1.446680e+01    1.934795e+00
  1.457793e+01    1.952742e+00
  1.468906e+01    1.926427e+00
  1.480019e+01    1.879262e+00
  1.491132e+01    1.983275e+00
  1.502245e+01    2.231958e+00
  1.513358e+01    3.256093e+00
  1.524471e+01    5.910060e+00
  1.535584e+01    4.731415e+00
  1.546697e+01    2.441028e+00
  1.557809e+01    1.935807e+00
  1.568922e+01    1.735796e+00
  1.580035e+01    1.710586e+00
  1.591148e+01    1.639387e+00
  1.602261e+01    1.604023e+00
  1.613374e+01    1.582582e+00
  1.624487e+01    1.538424e+00
  1.635600e+01    1.566330e+00
  1.646713e+01    1.528422e+00
  1.657826e+01    1.498624e+00
  1.668938e+01    1.508678e+00
  1.680051e+01    1.457052e+00
  1.691164e+01    1.470680e+00
  1.702277e+01    1.436960e+00
  1.713390e+01    1.437705e+00
  1.724503e+01    1.382291e+00
  1.735616e+01    1.402086e+00
  1.746729e+01    1.354545e+00
  1.757842e+01    1.369338e+00
  1.768955e+01    1.361107e+00
  1.780067e+01    1.324304e+00
  1.791180e+01    1.293348e+00
  1.802293e+01    1.318799e+00
  1.813406e+01    1.269472e+00
  1.824519e+01    1.250494e+00
  1.835632e+01    1.290294e+00
  1.846745e+01    1.223102e+00
  1.857858e+01    1.261948e+00
  1.868971e+01    1.244697e+00
  1.880084e+01    1.201020e+00
  1.891196e+01    1.214405e+00
  1.902309e+01    1.208189e+00
  1.913422e+01    1.201915e+00
  1.924535e+01    1.197290e+00
  1.935648e+01    1.180278e+00
  1.946761e+01    1.145144e+00
  1.957874e+01    1.156452e+00
  1.968987e+01    1.175826e+00
  1.980100e+01    1.143765e+00
  1.991213e+01    1.153100e+00
  2.002325e+01    1.134508e+00
  2.013438e+01    1.116845e+00
  2.024551e+01    1.124471e+00
  2.035664e+01    1.064124e+00
  2.046777e+01    1.134748e+00
  2.057890e+01    1.079983e+00
  2.069003e+01    1.110218e+00
  2.080116e+01    1.100560e+00
  2.091229e+01    1.097778e+00
  2.102342e+01    1.095512e+00
  2.113455e+01    1.093349e+00
  2.124567e+01    1.111789e+00
  2.135680e+01    1.136965e+00
  2.146793e+01    1.209242e+00
  2.157906e+01    1.444501e+00
  2.169019e+01    2.154135e+00
  2.180132e+01    4.956181e+00
  2.191245e+01    1.034008e+01
  2.202358e+01    5.514875e+00
  2.213471e+01    2.194477e+00
  2.224584e+01    1.403142e+00
  2.235696e+01    1.161062e+00
  2.246809e+01    1.084352e+00
  2.257922e+01    1.017766e+00
  2.269035e+01    9.815432e-01
  2.280148e+01    9.506489e-01
  2.291261e+01    9.395809e-01
  2.302374e+01    8.822157e-01
  2.313487e+01    8.877576e-01
  2.324600e+01    8.712338e-01
  2.335713e+01    8.588201e-01
  2.346825e+01    8.550712e-01
  2.357938e+01    8.577043e-01
  2.369051e+01    8.480313e-01
  2.380164e+01    8.189611e-01
  2.391277e+01    8.172362e-01
  2.402390e+01    8.081700e-01
  2.413503e+01    7.856241e-01
  2.424616e+01    7.995512e-01
  2.435729e+01    8.092970e-01
  2.446842e+01    7.912236e-01
  2.457954e+01    8.147899e-01
  2.469067e+01    8.005774e-01
  2.480180e+01    7.925224e-01
  2.491293e+01    7.987648e-01
  2.502406e+01    8.093081e-01
  2.513519e+01    8.231862e-01
  2.524632e+01    8.337380e-01
  2.535745e+01    8.923978e-01
  2.546858e+01    9.540708e-01
  2.557971e+01    1.068701e+00
  2.569083e+01    1.302274e+00
  2.580196e+01    2.244101e+00
  2.591309e+01    5.678071e+00
  2.602422e+01    8.389881e+00
  2.613535e+01    3.208804e+00
  2.624648e+01    1.572849e+00
  2.635761e+01    1.162039e+00
  2.646874e+01    1.007492e+00
  2.657987e+01    9.682477e-01
  2.669100e+01    9.135516e-01
  2.680212e+01    9.220685e-01
  2.691325e+01    9.385288e-01
  2.702438e+01    1.018965e+00
  2.713551e+01    1.487001e+00
  2.724664e+01    2.488424e+00
  2.735777e+01    1.626182e+00
  2.746890e+01    1.041320e+00
  2.758003e+01    9.007033e-01
  2.769116e+01    8.485020e-01
  2.780229e+01    8.222325e-01
  2.791342e+01    8.190486e-01
  2.802454e+01    8.000728e-01
  2.813567e+01    7.729948e-01
  2.824680e+01    7.855576e-01
  2.835793e+01    7.899597e-01
  2.846906e+01    7.811733e-01
  2.858019e+01    7.456864e-01
  2.869132e+01    7.515062e-01
  2.880245e+01    7.721559e-01
  2.891358e+01    7.486544e-01
  2.902471e+01    7.414356e-01
  2.913583e+01    7.389536e-01
  2.924696e+01    7.381803e-01
  2.935809e+01    7.312835e-01
  2.946922e+01    7.271355e-01
  2.958035e+01    7.415974e-01
  2.969148e+01    7.172104e-01
  2.980261e+01    7.147941e-01
  2.991374e+01    7.219925e-01
  3.002487e+01    7.421310e-01
  3.013600e+01    7.308534e-01
  3.024712e+01    7.210020e-01
  3.035825e+01    7.174866e-01
  3.046938e+01    7.149242e-01
  3.058051e+01    7.286100e-01
  3.069164e+01    7.188624e-01
  3.080277e+01    7.257780e-01
  3.091390e+01    7.314880e-01
  3.102503e+01    7.446240e-01
  3.113616e+01    7.341407e-01
  3.124729e+01    7.454152e-01
  3.135841e+01    7.381575e-01
  3.146954e+01    7.595417e-01
  3.158067e+01    7.904014e-01
  3.169180e+01    9.017509e-01
  3.180293e+01    1.209777e+00
  3.191406e+01    2.240132e+00
  3.202519e+01    1.984679e+00
  3.213632e+01    1.084451e+00
  3.224745e+01    8.421103e-01
  3.235858e+01    7.578676e-01
  3.246970e+01    7.551187e-01
  3.254908e+01    7.430885e-01

File: 2024-07-27_002_Ru-CGO-ex_Activtation_ramp_000002_data_000059.dat
# == pyFAI calibration ==
# Distance Sample to Detector: 0.4 m
# PONI: 9.750e-02, 1.135e-01 m
# Rotations: -0.000175 0.000000 -0.000000 rad
#
# == Fit2d calibration ==
# Distance Sample-beamCenter: 400.000 mm
# Center: x=1514.000, y=1300.000 pix
# Tilt: 0.010 deg  TiltPlanRot: 0.010 deg
#
# Detector Detector	 Spline= None	 PixelSize= 7.500e-05, 7.500e-05 m
#    Detector has a mask: False
#    Detector has a dark current: False
#    detector has a flat field: False
#
# Wavelength: 6.888e-11 m
# Mask applied: user provided
# Dark current applied: False
# Flat field applied: False
# Polarization factor: 0.99
# Normalization factor: 1.0
# --> /home/myspot/data/2024_07_Rosario/Ru-CGO-ex/2024-07-27_002_Ru-CGO-ex_Activtation_ramp_000002_data_000059.dat
#       q_nm^-1             I
  2.003187e-02    0.000000e+00
  1.311609e-01    7.790959e-02
  2.422899e-01    3.003633e-02
  3.534189e-01    1.284399e-02
  4.645479e-01    3.492050e-02
  5.756770e-01    2.527740e-02
  6.868060e-01    4.024059e-02
  7.979350e-01    1.602050e-01
  9.090640e-01    5.758380e-01
  1.020193e+00    1.026789e+00
  1.131322e+00    1.519633e+00
  1.242451e+00    2.298741e+00
  1.353580e+00    2.617602e+00
  1.464709e+00    2.810898e+00
  1.575838e+00    2.954042e+00
  1.686967e+00    2.858309e+00
  1.798096e+00    2.764751e+00
  1.909225e+00    2.818495e+00
  2.020354e+00    2.796784e+00
  2.131483e+00    2.782705e+00
  2.242612e+00    2.807763e+00
  2.353741e+00    2.839774e+00
  2.464870e+00    2.730951e+00
  2.575999e+00    2.759864e+00
  2.687128e+00    2.745815e+00
  2.798257e+00    2.861871e+00
  2.909386e+00    2.819340e+00
  3.020515e+00    2.871803e+00
  3.131644e+00    2.865967e+00
  3.242773e+00    2.927594e+00
  3.353902e+00    3.030160e+00
  3.465031e+00    2.891876e+00
  3.576160e+00    2.914376e+00
  3.687289e+00    3.075197e+00
  3.798418e+00    2.987630e+00
  3.909547e+00    3.046102e+00
  4.020676e+00    3.003487e+00
  4.131806e+00    3.061960e+00
  4.242935e+00    3.106055e+00
  4.354064e+00    3.054861e+00
  4.465193e+00    3.115741e+00
  4.576322e+00    3.094864e+00
  4.687451e+00    3.087230e+00
  4.798580e+00    3.062951e+00
  4.909709e+00    3.112163e+00
  5.020838e+00    3.092883e+00
  5.131967e+00    3.213290e+00
  5.243096e+00    3.100519e+00
  5.354225e+00    3.191113e+00
  5.465354e+00    3.136153e+00
  5.576483e+00    3.020194e+00
  5.687612e+00    3.121904e+00
  5.798741e+00    2.989606e+00
  5.909870e+00    3.102458e+00
  6.020999e+00    2.984586e+00
  6.132128e+00    3.102894e+00
  6.243257e+00    3.106684e+00
  6.354386e+00    3.047013e+00
  6.465515e+00    3.042218e+00
  6.576644e+00    3.042291e+00
  6.687773e+00    3.055635e+00
  6.798902e+00    2.995543e+00
  6.910031e+00    3.064937e+00
  7.021160e+00    2.948186e+00
  7.132289e+00    2.957601e+00
  7.243418e+00    3.001042e+00
  7.354547e+00    3.013964e+00
  7.465676e+00    2.963449e+00
  7.576805e+00    2.967574e+00
  7.687934e+00    2.992067e+00
  7.799063e+00    2.991663e+00
  7.910192e+00    3.001011e+00
  8.021321e+00    2.919624e+00
  8.132450e+00    2.931216e+00
  8.243579e+00    2.934505e+00
  8.354708e+00    2.900291e+00
  8.465837e+00    2.883639e+00
  8.576966e+00    2.922415e+00
  8.688095e+00    2.956546e+00
  8.799224e+00    2.844473e+00
  8.910353e+00    2.843226e+00
  9.021482e+00    2.853123e+00
  9.132611e+00    2.854953e+00
  9.243740e+00    2.816164e+00
  9.354869e+00    2.826045e+00
  9.465998e+00    2.748990e+00
  9.577127e+00    2.739333e+00
  9.688256e+00    2.710207e+00
  9.799385e+00    2.779982e+00
  9.910514e+00    2.700727e+00
  1.002164e+01    2.654368e+00
  1.013277e+01    2.660852e+00
  1.024390e+01    2.656711e+00
  1.035503e+01    2.658688e+00
  1.046616e+01    2.589680e+00
  1.057729e+01    2.608071e+00
  1.068842e+01    2.579803e+00
  1.079955e+01    2.598422e+00
  1.091068e+01    2.564531e+00
  1.102180e+01    2.493386e+00
  1.113293e+01    2.486710e+00
  1.124406e+01    2.436283e+00
  1.135519e+01    2.454090e+00
  1.146632e+01    2.453075e+00
  1.157745e+01    2.400896e+00
  1.168858e+01    2.409529e+00
  1.179971e+01    2.367061e+00
  1.191084e+01    2.378205e+00
  1.202197e+01    2.323853e+00
  1.213309e+01    2.328415e+00
  1.224422e+01    2.368928e+00
  1.235535e+01    2.336768e+00
  1.246648e+01    2.372192e+00
  1.257761e+01    2.369266e+00
  1.268874e+01    2.496111e+00
  1.279987e+01    2.688926e+00
  1.291100e+01    3.339928e+00
  1.302213e+01    6.062232e+00
  1.313326e+01    1.507450e+01
  1.324438e+01    1.461212e+01
  1.335551e+01    5.001800e+00
  1.346664e+01    3.059539e+00
  1.357777e+01    2.564264e+00
  1.368890e+01    2.322300e+00
  1.380003e+01    2.173959e+00
  1.391116e+01    2.108499e+00
  1.402229e+01    2.115088e+00
  1.413342e+01    2.046350e+00
  1.424455e+01    1.998605e+00
  1.435568e+01    1.943281e+00
  1.446680e+01    1.965225e+00
  1.457793e+01    1.934860e+00
  1.468906e+01    1.935695e+00
  1.480019e+01    1.894786e+00
  1.491132e+01    1.948900e+00
  1.502245e+01    2.171757e+00
  1.513358e+01    3.271456e+00
  1.524471e+01    6.002942e+00
  1.535584e+01    4.547476e+00
  1.546697e+01    2.431168e+00
  1.557809e+01    1.958485e+00
  1.568922e+01    1.775853e+00
  1.580035e+01    1.731366e+00
  1.591148e+01    1.667271e+00
  1.602261e+01    1.622224e+00
  1.613374e+01    1.569879e+00
  1.624487e+01    1.592196e+00
  1.635600e+01    1.539369e+00
  1.646713e+01    1.558396e+00
  1.657826e+01    1.522166e+00
  1.668938e+01    1.486122e+00
  1.680051e+01    1.476491e+00
  1.691164e+01    1.452882e+00
  1.702277e+01    1.433020e+00
  1.713390e+01    1.419649e+00
  1.724503e+01    1.360660e+00
  1.735616e+01    1.398249e+00
  1.746729e+01    1.412554e+00
  1.757842e+01    1.385571e+00
  1.768955e+01    1.360565e+00
  1.780067e+01    1.326693e+00
  1.791180e+01    1.318562e+00
  1.802293e+01    1.300664e+00
  1.813406e+01    1.271955e+00
  1.824519e+01    1.297741e+00
  1.835632e+01    1.281265e+00
  1.846745e+01    1.255991e+00
  1.857858e+01    1.250313e+00
  1.868971e+01    1.221809e+00
  1.880084e+01    1.225433e+00
  1.891196e+01    1.232230e+00
  1.902309e+01    1.198638e+00
  1.913422e+01    1.191690e+00
  1.924535e+01    1.207348e+00
  1.935648e+01    1.182260e+00
  1.946761e+01    1.182702e+00
  1.957874e+01    1.176860e+00
  1.968987e+01    1.131520e+00
  1.980100e+01    1.153299e+00
  1.991213e+01    1.139868e+00
  2.002325e+01    1.130431e+00
  2.013438e+01    1.117805e+00
  2.024551e+01    1.106169e+00
  2.035664e+01    1.101727e+00
  2.046777e+01    1.091626e+00
  2.057890e+01    1.086371e+00
  2.069003e+01    1.097135e+00
  2.080116e+01    1.087050e+00
  2.091229e+01    1.096574e+00
  2.102342e+01    1.083606e+00
  2.113455e+01    1.098991e+00
  2.124567e+01    1.127438e+00
  2.135680e+01    1.131669e+00
  2.146793e+01    1.216436e+00
  2.157906e+01    1.440943e+00
  2.169019e+01    2.213651e+00
  2.180132e+01    5.104846e+00
  2.191245e+01    1.038614e+01
  2.202358e+01    5.233656e+00
  2.213471e+01    2.140030e+00
  2.224584e+01    1.397185e+00
  2.235696e+01    1.173316e+00
  2.246809e+01    1.068301e+00
  2.257922e+01    1.013957e+00
  2.269035e+01    9.654626e-01
  2.280148e+01    9.430521e-01
  2.291261e+01    9.276419e-01
  2.302374e+01    9.162593e-01
  2.313487e+01    8.895891e-01
  2.324600e+01    8.784636e-01
  2.335713e+01    8.666398e-01
  2.346825e+01    8.611571e-01
  2.357938e+01    8.513077e-01
  2.369051e+01    8.287881e-01
  2.380164e+01    8.116719e-01
  2.391277e+01    7.970168e-01
  2.402390e+01    7.812589e-01
  2.413503e+01    7.828386e-01
  2.424616e+01    7.832782e-01
  2.435729e+01    7.995711e-01
  2.446842e+01    8.075575e-01
  2.457954e+01    7.891596e-01
  2.469067e+01    8.181643e-01
  2.480180e+01    7.848693e-01
  2.491293e+01    8.113477e-01
  2.502406e+01    8.097477e-01
  2.513519e+01    8.293641e-01
  2.524632e+01    8.511766e-01
  2.535745e+01    8.946139e-01
  2.546858e+01    9.396511e-01
  2.557971e+01    1.077253e+00
  2.569083e+01    1.380697e+00
  2.580196e+01    2.357914e+00
  2.591309e+01    5.873862e+00
  2.602422e+01    8.082044e+00
  2.613535e+01    3.035220e+00
  2.624648e+01    1.572491e+00
  2.635761e+01    1.152511e+00
  2.646874e+01    9.911354e-01
  2.657987e+01    9.401110e-01
  2.669100e+01    9.407379e-01
  2.680212e+01    9.093558e-01
  2.691325e+01    9.124473e-01
  2.702438e+01    1.064051e+00
  2.713551e+01    1.493402e+00
  2.724664e+01    2.468727e+00
  2.735777e+01    1.602386e+00
  2.746890e+01    1.024081e+00
  2.758003e+01    9.030222e-01
  2.769116e+01    8.454208e-01
  2.780229e+01    8.451660e-01
  2.791342e+01    8.083930e-01
  2.802454e+01    7.933645e-01
  2.813567e+01    7.849397e-01
  2.824680e+01    7.605872e-01
  2.835793e+01    7.790229e-01
  2.846906e+01    7.660102e-01
  2.858019e+01    7.629948e-01
  2.869132e+01    7.441335e-01
  2.880245e+01    7.600372e-01
  2.891358e+01    7.463794e-01
  2.902471e+01    7.516512e-01
  2.913583e+01    7.452376e-01
  2.924696e+01    7.420466e-01
  2.935809e+01    7.118208e-01
  2.946922e+01    7.347733e-01
  2.958035e+01    7.364257e-01
  2.969148e+01    7.308422e-01
  2.980261e+01    7.139179e-01
  2.991374e+01    7.249365e-01
  3.002487e+01    7.316691e-01
  3.013600e+01    7.347509e-01
  3.024712e+01    7.166528e-01
  3.035825e+01    7.263150e-01
  3.046938e+01    7.257788e-01
  3.058051e+01    7.240787e-01
  3.069164e+01    7.165776e-01
  3.080277e+01    7.322494e-01
  3.091390e+01    7.138034e-01
  3.102503e+01    7.567382e-01
  3.113616e+01    7.339348e-01
  3.124729e+01    7.382137e-01
  3.135841e+01    7.212996e-01
  3.146954e+01    7.744637e-01
  3.158067e+01    7.905983e-01
  3.169180e+01    8.817010e-01
  3.180293e+01    1.233284e+00
  3.191406e+01    2.292327e+00
  3.202519e+01    1.863401e+00
  3.213632e+01    1.050510e+00
  3.224745e+01    8.310357e-01
  3.235858e+01    7.645050e-01
  3.246970e+01    7.260856e-01
  3.254908e+01    7.488313e-01