Folder: myspot_2024_07/XRD (part 35)

File: 2024-07-27_002_Ru-CGO-ex_Activtation_ramp_000002_data_000153.dat
# == pyFAI calibration ==
# Distance Sample to Detector: 0.4 m
# PONI: 9.750e-02, 1.135e-01 m
# Rotations: -0.000175 0.000000 -0.000000 rad
#
# == Fit2d calibration ==
# Distance Sample-beamCenter: 400.000 mm
# Center: x=1514.000, y=1300.000 pix
# Tilt: 0.010 deg  TiltPlanRot: 0.010 deg
#
# Detector Detector	 Spline= None	 PixelSize= 7.500e-05, 7.500e-05 m
#    Detector has a mask: False
#    Detector has a dark current: False
#    detector has a flat field: False
#
# Wavelength: 6.888e-11 m
# Mask applied: user provided
# Dark current applied: False
# Flat field applied: False
# Polarization factor: 0.99
# Normalization factor: 1.0
# --> /home/myspot/data/2024_07_Rosario/Ru-CGO-ex/2024-07-27_002_Ru-CGO-ex_Activtation_ramp_000002_data_000153.dat
#       q_nm^-1             I
  2.003187e-02    0.000000e+00
  1.311609e-01    7.689951e-02
  2.422899e-01    6.925289e-02
  3.534189e-01    6.467865e-03
  4.645479e-01    3.278487e-02
  5.756770e-01    6.990039e-02
  6.868060e-01    2.989309e-02
  7.979350e-01    1.652680e-01
  9.090640e-01    6.145903e-01
  1.020193e+00    1.106493e+00
  1.131322e+00    1.412779e+00
  1.242451e+00    2.027902e+00
  1.353580e+00    2.606075e+00
  1.464709e+00    2.806749e+00
  1.575838e+00    2.821454e+00
  1.686967e+00    2.903971e+00
  1.798096e+00    2.702734e+00
  1.909225e+00    2.709387e+00
  2.020354e+00    2.699569e+00
  2.131483e+00    2.694941e+00
  2.242612e+00    2.795321e+00
  2.353741e+00    2.827230e+00
  2.464870e+00    2.759270e+00
  2.575999e+00    2.814393e+00
  2.687128e+00    2.845004e+00
  2.798257e+00    2.857263e+00
  2.909386e+00    2.823849e+00
  3.020515e+00    2.934955e+00
  3.131644e+00    2.834621e+00
  3.242773e+00    2.988348e+00
  3.353902e+00    2.939831e+00
  3.465031e+00    2.999561e+00
  3.576160e+00    2.976708e+00
  3.687289e+00    2.963618e+00
  3.798418e+00    3.025352e+00
  3.909547e+00    3.078723e+00
  4.020676e+00    3.054279e+00
  4.131806e+00    3.032820e+00
  4.242935e+00    2.986885e+00
  4.354064e+00    3.024605e+00
  4.465193e+00    3.057147e+00
  4.576322e+00    3.062387e+00
  4.687451e+00    3.073194e+00
  4.798580e+00    3.133075e+00
  4.909709e+00    3.124495e+00
  5.020838e+00    3.131874e+00
  5.131967e+00    3.137335e+00
  5.243096e+00    3.155688e+00
  5.354225e+00    3.125677e+00
  5.465354e+00    3.091701e+00
  5.576483e+00    3.219251e+00
  5.687612e+00    3.150485e+00
  5.798741e+00    3.108785e+00
  5.909870e+00    3.030274e+00
  6.020999e+00    2.944699e+00
  6.132128e+00    3.072163e+00
  6.243257e+00    3.056062e+00
  6.354386e+00    3.080506e+00
  6.465515e+00    3.084968e+00
  6.576644e+00    3.074807e+00
  6.687773e+00    3.093662e+00
  6.798902e+00    3.107690e+00
  6.910031e+00    3.120063e+00
  7.021160e+00    3.040995e+00
  7.132289e+00    3.034598e+00
  7.243418e+00    3.007393e+00
  7.354547e+00    3.034051e+00
  7.465676e+00    2.973420e+00
  7.576805e+00    3.012030e+00
  7.687934e+00    2.999390e+00
  7.799063e+00    3.030302e+00
  7.910192e+00    2.943512e+00
  8.021321e+00    2.954358e+00
  8.132450e+00    2.961340e+00
  8.243579e+00    3.024250e+00
  8.354708e+00    2.890560e+00
  8.465837e+00    2.893426e+00
  8.576966e+00    2.918275e+00
  8.688095e+00    2.869254e+00
  8.799224e+00    2.923256e+00
  8.910353e+00    2.871952e+00
  9.021482e+00    2.865201e+00
  9.132611e+00    2.794326e+00
  9.243740e+00    2.778175e+00
  9.354869e+00    2.816876e+00
  9.465998e+00    2.812503e+00
  9.577127e+00    2.784875e+00
  9.688256e+00    2.772921e+00
  9.799385e+00    2.698542e+00
  9.910514e+00    2.704706e+00
  1.002164e+01    2.705407e+00
  1.013277e+01    2.617086e+00
  1.024390e+01    2.644327e+00
  1.035503e+01    2.637374e+00
  1.046616e+01    2.589475e+00
  1.057729e+01    2.606172e+00
  1.068842e+01    2.623609e+00
  1.079955e+01    2.525884e+00
  1.091068e+01    2.540604e+00
  1.102180e+01    2.497984e+00
  1.113293e+01    2.488287e+00
  1.124406e+01    2.539735e+00
  1.135519e+01    2.512273e+00
  1.146632e+01    2.398037e+00
  1.157745e+01    2.391663e+00
  1.168858e+01    2.378419e+00
  1.179971e+01    2.405548e+00
  1.191084e+01    2.399346e+00
  1.202197e+01    2.338390e+00
  1.213309e+01    2.347457e+00
  1.224422e+01    2.364982e+00
  1.235535e+01    2.305588e+00
  1.246648e+01    2.339510e+00
  1.257761e+01    2.402398e+00
  1.268874e+01    2.462395e+00
  1.279987e+01    2.717818e+00
  1.291100e+01    3.286038e+00
  1.302213e+01    6.256727e+00
  1.313326e+01    1.449415e+01
  1.324438e+01    1.129907e+01
  1.335551e+01    4.232138e+00
  1.346664e+01    2.887472e+00
  1.357777e+01    2.440584e+00
  1.368890e+01    2.254842e+00
  1.380003e+01    2.160415e+00
  1.391116e+01    2.128598e+00
  1.402229e+01    2.068760e+00
  1.413342e+01    2.003491e+00
  1.424455e+01    1.995849e+00
  1.435568e+01    1.956468e+00
  1.446680e+01    1.964953e+00
  1.457793e+01    1.935722e+00
  1.468906e+01    1.898258e+00
  1.480019e+01    1.933129e+00
  1.491132e+01    1.982515e+00
  1.502245e+01    2.243121e+00
  1.513358e+01    3.470095e+00
  1.524471e+01    5.540757e+00
  1.535584e+01    3.701235e+00
  1.546697e+01    2.206050e+00
  1.557809e+01    1.812681e+00
  1.568922e+01    1.789243e+00
  1.580035e+01    1.696560e+00
  1.591148e+01    1.646464e+00
  1.602261e+01    1.629908e+00
  1.613374e+01    1.612776e+00
  1.624487e+01    1.589951e+00
  1.635600e+01    1.524220e+00
  1.646713e+01    1.481300e+00
  1.657826e+01    1.533648e+00
  1.668938e+01    1.474906e+00
  1.680051e+01    1.472207e+00
  1.691164e+01    1.419841e+00
  1.702277e+01    1.408706e+00
  1.713390e+01    1.457677e+00
  1.724503e+01    1.428986e+00
  1.735616e+01    1.430808e+00
  1.746729e+01    1.397331e+00
  1.757842e+01    1.347851e+00
  1.768955e+01    1.364730e+00
  1.780067e+01    1.327408e+00
  1.791180e+01    1.341186e+00
  1.802293e+01    1.308435e+00
  1.813406e+01    1.315832e+00
  1.824519e+01    1.276409e+00
  1.835632e+01    1.275244e+00
  1.846745e+01    1.259018e+00
  1.857858e+01    1.217264e+00
  1.868971e+01    1.229103e+00
  1.880084e+01    1.244290e+00
  1.891196e+01    1.230536e+00
  1.902309e+01    1.227933e+00
  1.913422e+01    1.190363e+00
  1.924535e+01    1.216256e+00
  1.935648e+01    1.205319e+00
  1.946761e+01    1.155580e+00
  1.957874e+01    1.166312e+00
  1.968987e+01    1.171172e+00
  1.980100e+01    1.136407e+00
  1.991213e+01    1.102298e+00
  2.002325e+01    1.107572e+00
  2.013438e+01    1.116862e+00
  2.024551e+01    1.093217e+00
  2.035664e+01    1.092664e+00
  2.046777e+01    1.078312e+00
  2.057890e+01    1.108643e+00
  2.069003e+01    1.077753e+00
  2.080116e+01    1.066454e+00
  2.091229e+01    1.087190e+00
  2.102342e+01    1.069812e+00
  2.113455e+01    1.112598e+00
  2.124567e+01    1.110855e+00
  2.135680e+01    1.142217e+00
  2.146793e+01    1.247985e+00
  2.157906e+01    1.472581e+00
  2.169019e+01    2.375407e+00
  2.180132e+01    5.586592e+00
  2.191245e+01    9.157150e+00
  2.202358e+01    3.668201e+00
  2.213471e+01    1.778014e+00
  2.224584e+01    1.303606e+00
  2.235696e+01    1.136277e+00
  2.246809e+01    1.044368e+00
  2.257922e+01    1.002607e+00
  2.269035e+01    9.436307e-01
  2.280148e+01    9.333766e-01
  2.291261e+01    9.299798e-01
  2.302374e+01    9.156554e-01
  2.313487e+01    8.822427e-01
  2.324600e+01    8.913295e-01
  2.335713e+01    8.625875e-01
  2.346825e+01    8.448983e-01
  2.357938e+01    8.656395e-01
  2.369051e+01    8.351358e-01
  2.380164e+01    8.247114e-01
  2.391277e+01    8.110468e-01
  2.402390e+01    7.914923e-01
  2.413503e+01    7.900231e-01
  2.424616e+01    7.884303e-01
  2.435729e+01    7.830743e-01
  2.446842e+01    7.966585e-01
  2.457954e+01    7.734209e-01
  2.469067e+01    7.865784e-01
  2.480180e+01    7.999871e-01
  2.491293e+01    7.950135e-01
  2.502406e+01    8.029032e-01
  2.513519e+01    8.197546e-01
  2.524632e+01    8.511555e-01
  2.535745e+01    8.747898e-01
  2.546858e+01    9.614053e-01
  2.557971e+01    1.058091e+00
  2.569083e+01    1.412827e+00
  2.580196e+01    2.671475e+00
  2.591309e+01    6.311520e+00
  2.602422e+01    5.850698e+00
  2.613535e+01    2.174589e+00
  2.624648e+01    1.313462e+00
  2.635761e+01    1.041497e+00
  2.646874e+01    9.287737e-01
  2.657987e+01    9.099298e-01
  2.669100e+01    9.084920e-01
  2.680212e+01    8.961678e-01
  2.691325e+01    8.970215e-01
  2.702438e+01    1.043636e+00
  2.713551e+01    1.635571e+00
  2.724664e+01    2.189374e+00
  2.735777e+01    1.265297e+00
  2.746890e+01    9.439363e-01
  2.758003e+01    8.585956e-01
  2.769116e+01    8.399736e-01
  2.780229e+01    8.225024e-01
  2.791342e+01    8.187218e-01
  2.802454e+01    7.993240e-01
  2.813567e+01    7.722556e-01
  2.824680e+01    7.740675e-01
  2.835793e+01    7.628480e-01
  2.846906e+01    7.685537e-01
  2.858019e+01    7.680583e-01
  2.869132e+01    7.387457e-01
  2.880245e+01    7.510589e-01
  2.891358e+01    7.489477e-01
  2.902471e+01    7.467842e-01
  2.913583e+01    7.262192e-01
  2.924696e+01    7.262298e-01
  2.935809e+01    7.291622e-01
  2.946922e+01    7.199980e-01
  2.958035e+01    7.119973e-01
  2.969148e+01    7.086745e-01
  2.980261e+01    7.242314e-01
  2.991374e+01    7.234637e-01
  3.002487e+01    7.446748e-01
  3.013600e+01    7.172388e-01
  3.024712e+01    7.014455e-01
  3.035825e+01    7.199724e-01
  3.046938e+01    7.067671e-01
  3.058051e+01    7.017315e-01
  3.069164e+01    6.909990e-01
  3.080277e+01    7.148818e-01
  3.091390e+01    7.259237e-01
  3.102503e+01    7.071123e-01
  3.113616e+01    7.360603e-01
  3.124729e+01    7.173113e-01
  3.135841e+01    7.479877e-01
  3.146954e+01    7.561923e-01
  3.158067e+01    8.270260e-01
  3.169180e+01    9.186469e-01
  3.180293e+01    1.381450e+00
  3.191406e+01    2.183935e+00
  3.202519e+01    1.357993e+00
  3.213632e+01    8.967114e-01
  3.224745e+01    7.943443e-01
  3.235858e+01    7.355378e-01
  3.246970e+01    7.428770e-01
  3.254908e+01    7.068998e-01

File: 2024-07-27_002_Ru-CGO-ex_Activtation_ramp_000002_data_000155.dat
# == pyFAI calibration ==
# Distance Sample to Detector: 0.4 m
# PONI: 9.750e-02, 1.135e-01 m
# Rotations: -0.000175 0.000000 -0.000000 rad
#
# == Fit2d calibration ==
# Distance Sample-beamCenter: 400.000 mm
# Center: x=1514.000, y=1300.000 pix
# Tilt: 0.010 deg  TiltPlanRot: 0.010 deg
#
# Detector Detector	 Spline= None	 PixelSize= 7.500e-05, 7.500e-05 m
#    Detector has a mask: False
#    Detector has a dark current: False
#    detector has a flat field: False
#
# Wavelength: 6.888e-11 m
# Mask applied: user provided
# Dark current applied: False
# Flat field applied: False
# Polarization factor: 0.99
# Normalization factor: 1.0
# --> /home/myspot/data/2024_07_Rosario/Ru-CGO-ex/2024-07-27_002_Ru-CGO-ex_Activtation_ramp_000002_data_000155.dat
#       q_nm^-1             I
  2.003187e-02    0.000000e+00
  1.311609e-01    4.515014e-02
  2.422899e-01    3.353946e-02
  3.534189e-01    3.180049e-02
  4.645479e-01    1.984240e-02
  5.756770e-01    3.024319e-02
  6.868060e-01    3.294585e-02
  7.979350e-01    1.420611e-01
  9.090640e-01    5.513201e-01
  1.020193e+00    1.191615e+00
  1.131322e+00    1.458460e+00
  1.242451e+00    2.320636e+00
  1.353580e+00    2.648676e+00
  1.464709e+00    2.742089e+00
  1.575838e+00    2.917897e+00
  1.686967e+00    2.888640e+00
  1.798096e+00    2.707919e+00
  1.909225e+00    2.712135e+00
  2.020354e+00    2.711555e+00
  2.131483e+00    2.755078e+00
  2.242612e+00    2.744362e+00
  2.353741e+00    2.749094e+00
  2.464870e+00    2.713656e+00
  2.575999e+00    2.870020e+00
  2.687128e+00    2.815045e+00
  2.798257e+00    2.836847e+00
  2.909386e+00    2.875613e+00
  3.020515e+00    2.895072e+00
  3.131644e+00    3.024471e+00
  3.242773e+00    2.992029e+00
  3.353902e+00    2.972189e+00
  3.465031e+00    2.966261e+00
  3.576160e+00    3.020205e+00
  3.687289e+00    2.950898e+00
  3.798418e+00    2.964665e+00
  3.909547e+00    2.999349e+00
  4.020676e+00    2.922177e+00
  4.131806e+00    3.060058e+00
  4.242935e+00    3.147142e+00
  4.354064e+00    3.107143e+00
  4.465193e+00    3.096876e+00
  4.576322e+00    3.107258e+00
  4.687451e+00    3.103781e+00
  4.798580e+00    3.106245e+00
  4.909709e+00    3.127704e+00
  5.020838e+00    3.078077e+00
  5.131967e+00    3.156778e+00
  5.243096e+00    3.118986e+00
  5.354225e+00    3.220598e+00
  5.465354e+00    3.088888e+00
  5.576483e+00    3.004451e+00
  5.687612e+00    2.988058e+00
  5.798741e+00    3.073951e+00
  5.909870e+00    3.083633e+00
  6.020999e+00    3.044490e+00
  6.132128e+00    3.042005e+00
  6.243257e+00    3.016834e+00
  6.354386e+00    3.018101e+00
  6.465515e+00    3.117275e+00
  6.576644e+00    3.132025e+00
  6.687773e+00    2.955063e+00
  6.798902e+00    3.012266e+00
  6.910031e+00    3.052895e+00
  7.021160e+00    3.053599e+00
  7.132289e+00    3.078563e+00
  7.243418e+00    3.093289e+00
  7.354547e+00    2.985518e+00
  7.465676e+00    2.888649e+00
  7.576805e+00    3.033292e+00
  7.687934e+00    2.995781e+00
  7.799063e+00    2.941659e+00
  7.910192e+00    2.916970e+00
  8.021321e+00    2.969119e+00
  8.132450e+00    3.012373e+00
  8.243579e+00    2.941198e+00
  8.354708e+00    2.905668e+00
  8.465837e+00    2.880546e+00
  8.576966e+00    2.873444e+00
  8.688095e+00    2.869104e+00
  8.799224e+00    2.889292e+00
  8.910353e+00    2.856525e+00
  9.021482e+00    2.862800e+00
  9.132611e+00    2.795125e+00
  9.243740e+00    2.783866e+00
  9.354869e+00    2.796210e+00
  9.465998e+00    2.764727e+00
  9.577127e+00    2.759025e+00
  9.688256e+00    2.644584e+00
  9.799385e+00    2.731773e+00
  9.910514e+00    2.684968e+00
  1.002164e+01    2.723034e+00
  1.013277e+01    2.643887e+00
  1.024390e+01    2.734696e+00
  1.035503e+01    2.563179e+00
  1.046616e+01    2.628573e+00
  1.057729e+01    2.614745e+00
  1.068842e+01    2.632992e+00
  1.079955e+01    2.580034e+00
  1.091068e+01    2.515834e+00
  1.102180e+01    2.478798e+00
  1.113293e+01    2.471386e+00
  1.124406e+01    2.442419e+00
  1.135519e+01    2.383830e+00
  1.146632e+01    2.456307e+00
  1.157745e+01    2.452397e+00
  1.168858e+01    2.354922e+00
  1.179971e+01    2.395726e+00
  1.191084e+01    2.309255e+00
  1.202197e+01    2.346843e+00
  1.213309e+01    2.308481e+00
  1.224422e+01    2.325599e+00
  1.235535e+01    2.368182e+00
  1.246648e+01    2.357731e+00
  1.257761e+01    2.404255e+00
  1.268874e+01    2.424339e+00
  1.279987e+01    2.682823e+00
  1.291100e+01    3.371907e+00
  1.302213e+01    6.390770e+00
  1.313326e+01    1.460085e+01
  1.324438e+01    1.099996e+01
  1.335551e+01    4.242200e+00
  1.346664e+01    2.833060e+00
  1.357777e+01    2.464237e+00
  1.368890e+01    2.271708e+00
  1.380003e+01    2.162600e+00
  1.391116e+01    2.062273e+00
  1.402229e+01    2.018715e+00
  1.413342e+01    2.019285e+00
  1.424455e+01    1.958794e+00
  1.435568e+01    1.959648e+00
  1.446680e+01    1.933416e+00
  1.457793e+01    1.933791e+00
  1.468906e+01    1.931941e+00
  1.480019e+01    1.950283e+00
  1.491132e+01    1.984325e+00
  1.502245e+01    2.280699e+00
  1.513358e+01    3.521389e+00
  1.524471e+01    5.576217e+00
  1.535584e+01    3.590707e+00
  1.546697e+01    2.214534e+00
  1.557809e+01    1.852609e+00
  1.568922e+01    1.729458e+00
  1.580035e+01    1.694346e+00
  1.591148e+01    1.670045e+00
  1.602261e+01    1.647805e+00
  1.613374e+01    1.599036e+00
  1.624487e+01    1.564652e+00
  1.635600e+01    1.563679e+00
  1.646713e+01    1.542485e+00
  1.657826e+01    1.541797e+00
  1.668938e+01    1.510180e+00
  1.680051e+01    1.478426e+00
  1.691164e+01    1.471229e+00
  1.702277e+01    1.458791e+00
  1.713390e+01    1.412655e+00
  1.724503e+01    1.411554e+00
  1.735616e+01    1.419951e+00
  1.746729e+01    1.372510e+00
  1.757842e+01    1.358408e+00
  1.768955e+01    1.363533e+00
  1.780067e+01    1.328248e+00
  1.791180e+01    1.349827e+00
  1.802293e+01    1.282200e+00
  1.813406e+01    1.292671e+00
  1.824519e+01    1.268404e+00
  1.835632e+01    1.262859e+00
  1.846745e+01    1.249893e+00
  1.857858e+01    1.235380e+00
  1.868971e+01    1.223378e+00
  1.880084e+01    1.236411e+00
  1.891196e+01    1.216700e+00
  1.902309e+01    1.217811e+00
  1.913422e+01    1.197075e+00
  1.924535e+01    1.176805e+00
  1.935648e+01    1.160035e+00
  1.946761e+01    1.166472e+00
  1.957874e+01    1.131831e+00
  1.968987e+01    1.149662e+00
  1.980100e+01    1.150061e+00
  1.991213e+01    1.132237e+00
  2.002325e+01    1.112742e+00
  2.013438e+01    1.134499e+00
  2.024551e+01    1.092581e+00
  2.035664e+01    1.093717e+00
  2.046777e+01    1.099927e+00
  2.057890e+01    1.083544e+00
  2.069003e+01    1.077920e+00
  2.080116e+01    1.072241e+00
  2.091229e+01    1.110300e+00
  2.102342e+01    1.085989e+00
  2.113455e+01    1.112486e+00
  2.124567e+01    1.101918e+00
  2.135680e+01    1.146300e+00
  2.146793e+01    1.240762e+00
  2.157906e+01    1.469989e+00
  2.169019e+01    2.427149e+00
  2.180132e+01    5.745161e+00
  2.191245e+01    8.975917e+00
  2.202358e+01    3.532550e+00
  2.213471e+01    1.731652e+00
  2.224584e+01    1.257120e+00
  2.235696e+01    1.103630e+00
  2.246809e+01    1.049422e+00
  2.257922e+01    9.838060e-01
  2.269035e+01    9.553971e-01
  2.280148e+01    9.391391e-01
  2.291261e+01    9.316183e-01
  2.302374e+01    9.077235e-01
  2.313487e+01    8.638059e-01
  2.324600e+01    8.877557e-01
  2.335713e+01    8.651868e-01
  2.346825e+01    8.379886e-01
  2.357938e+01    8.515792e-01
  2.369051e+01    8.342718e-01
  2.380164e+01    8.318329e-01
  2.391277e+01    7.947079e-01
  2.402390e+01    7.922466e-01
  2.413503e+01    7.863239e-01
  2.424616e+01    7.890244e-01
  2.435729e+01    8.068290e-01
  2.446842e+01    7.802579e-01
  2.457954e+01    7.786871e-01
  2.469067e+01    8.131431e-01
  2.480180e+01    7.906491e-01
  2.491293e+01    7.924066e-01
  2.502406e+01    8.015772e-01
  2.513519e+01    8.413078e-01
  2.524632e+01    8.566979e-01
  2.535745e+01    8.843424e-01
  2.546858e+01    9.444193e-01
  2.557971e+01    1.063766e+00
  2.569083e+01    1.443246e+00
  2.580196e+01    2.768535e+00
  2.591309e+01    6.417788e+00
  2.602422e+01    5.522212e+00
  2.613535e+01    2.081947e+00
  2.624648e+01    1.268787e+00
  2.635761e+01    1.033179e+00
  2.646874e+01    9.300784e-01
  2.657987e+01    8.983340e-01
  2.669100e+01    8.886159e-01
  2.680212e+01    8.903731e-01
  2.691325e+01    9.140928e-01
  2.702438e+01    1.069134e+00
  2.713551e+01    1.709182e+00
  2.724664e+01    2.153756e+00
  2.735777e+01    1.227967e+00
  2.746890e+01    9.589589e-01
  2.758003e+01    8.817516e-01
  2.769116e+01    8.287391e-01
  2.780229e+01    8.098828e-01
  2.791342e+01    7.996404e-01
  2.802454e+01    8.097402e-01
  2.813567e+01    7.687877e-01
  2.824680e+01    7.774053e-01
  2.835793e+01    7.689258e-01
  2.846906e+01    7.846481e-01
  2.858019e+01    7.286990e-01
  2.869132e+01    7.600028e-01
  2.880245e+01    7.345259e-01
  2.891358e+01    7.281889e-01
  2.902471e+01    7.361133e-01
  2.913583e+01    7.307588e-01
  2.924696e+01    6.992294e-01
  2.935809e+01    7.335889e-01
  2.946922e+01    7.293124e-01
  2.958035e+01    7.352452e-01
  2.969148e+01    7.134415e-01
  2.980261e+01    7.038901e-01
  2.991374e+01    7.318626e-01
  3.002487e+01    7.279975e-01
  3.013600e+01    7.299540e-01
  3.024712e+01    7.104783e-01
  3.035825e+01    7.023608e-01
  3.046938e+01    7.249175e-01
  3.058051e+01    7.096621e-01
  3.069164e+01    7.166135e-01
  3.080277e+01    6.978858e-01
  3.091390e+01    7.145261e-01
  3.102503e+01    7.309008e-01
  3.113616e+01    7.104581e-01
  3.124729e+01    7.316985e-01
  3.135841e+01    7.354896e-01
  3.146954e+01    7.684491e-01
  3.158067e+01    8.171516e-01
  3.169180e+01    9.518842e-01
  3.180293e+01    1.441390e+00
  3.191406e+01    2.178462e+00
  3.202519e+01    1.339095e+00
  3.213632e+01    8.862290e-01
  3.224745e+01    7.647365e-01
  3.235858e+01    7.612482e-01
  3.246970e+01    7.476819e-01
  3.254908e+01    7.114729e-01