Folder: myspot_2024_07/XRD (part 2)

File: 2024-07-27_002_Ru-CGO-ex_Activtation_ramp_000002_data_000005.dat
# == pyFAI calibration ==
# Distance Sample to Detector: 0.4 m
# PONI: 9.750e-02, 1.135e-01 m
# Rotations: -0.000175 0.000000 -0.000000 rad
#
# == Fit2d calibration ==
# Distance Sample-beamCenter: 400.000 mm
# Center: x=1514.000, y=1300.000 pix
# Tilt: 0.010 deg  TiltPlanRot: 0.010 deg
#
# Detector Detector	 Spline= None	 PixelSize= 7.500e-05, 7.500e-05 m
#    Detector has a mask: False
#    Detector has a dark current: False
#    detector has a flat field: False
#
# Wavelength: 6.888e-11 m
# Mask applied: user provided
# Dark current applied: False
# Flat field applied: False
# Polarization factor: 0.99
# Normalization factor: 1.0
# --> /home/myspot/data/2024_07_Rosario/Ru-CGO-ex/2024-07-27_002_Ru-CGO-ex_Activtation_ramp_000002_data_000005.dat
#       q_nm^-1             I
  2.003187e-02    0.000000e+00
  1.311609e-01    3.271027e-03
  2.422899e-01    4.238021e-02
  3.534189e-01    2.753733e-03
  4.645479e-01    9.781254e-03
  5.756770e-01    2.040319e-02
  6.868060e-01    7.324327e-02
  7.979350e-01    1.587199e-01
  9.090640e-01    5.618439e-01
  1.020193e+00    1.051702e+00
  1.131322e+00    1.529206e+00
  1.242451e+00    2.249975e+00
  1.353580e+00    2.751574e+00
  1.464709e+00    2.813075e+00
  1.575838e+00    3.046332e+00
  1.686967e+00    3.092406e+00
  1.798096e+00    2.796393e+00
  1.909225e+00    2.866778e+00
  2.020354e+00    2.725504e+00
  2.131483e+00    2.848306e+00
  2.242612e+00    2.809066e+00
  2.353741e+00    2.877597e+00
  2.464870e+00    2.838867e+00
  2.575999e+00    2.980188e+00
  2.687128e+00    2.867261e+00
  2.798257e+00    2.908986e+00
  2.909386e+00    2.946740e+00
  3.020515e+00    2.855852e+00
  3.131644e+00    3.002933e+00
  3.242773e+00    2.940316e+00
  3.353902e+00    2.964244e+00
  3.465031e+00    2.977321e+00
  3.576160e+00    2.953366e+00
  3.687289e+00    3.073159e+00
  3.798418e+00    3.026365e+00
  3.909547e+00    2.922729e+00
  4.020676e+00    3.065401e+00
  4.131806e+00    3.073995e+00
  4.242935e+00    3.024583e+00
  4.354064e+00    3.054866e+00
  4.465193e+00    3.128174e+00
  4.576322e+00    3.099878e+00
  4.687451e+00    3.182061e+00
  4.798580e+00    3.119828e+00
  4.909709e+00    3.209811e+00
  5.020838e+00    3.160125e+00
  5.131967e+00    3.116702e+00
  5.243096e+00    3.179375e+00
  5.354225e+00    3.241478e+00
  5.465354e+00    3.113619e+00
  5.576483e+00    3.212783e+00
  5.687612e+00    3.195991e+00
  5.798741e+00    3.174682e+00
  5.909870e+00    3.015811e+00
  6.020999e+00    3.131954e+00
  6.132128e+00    3.178736e+00
  6.243257e+00    3.061824e+00
  6.354386e+00    3.133770e+00
  6.465515e+00    3.104074e+00
  6.576644e+00    3.029624e+00
  6.687773e+00    3.194689e+00
  6.798902e+00    3.154764e+00
  6.910031e+00    3.081080e+00
  7.021160e+00    2.977889e+00
  7.132289e+00    3.112146e+00
  7.243418e+00    3.033061e+00
  7.354547e+00    2.929371e+00
  7.465676e+00    3.006499e+00
  7.576805e+00    3.029569e+00
  7.687934e+00    2.993787e+00
  7.799063e+00    2.930246e+00
  7.910192e+00    2.922509e+00
  8.021321e+00    2.991147e+00
  8.132450e+00    2.949043e+00
  8.243579e+00    2.988465e+00
  8.354708e+00    2.919110e+00
  8.465837e+00    2.892403e+00
  8.576966e+00    2.930782e+00
  8.688095e+00    2.945737e+00
  8.799224e+00    2.838132e+00
  8.910353e+00    2.822568e+00
  9.021482e+00    2.836274e+00
  9.132611e+00    2.834694e+00
  9.243740e+00    2.897994e+00
  9.354869e+00    2.781929e+00
  9.465998e+00    2.814307e+00
  9.577127e+00    2.771013e+00
  9.688256e+00    2.769085e+00
  9.799385e+00    2.758316e+00
  9.910514e+00    2.761512e+00
  1.002164e+01    2.716908e+00
  1.013277e+01    2.715724e+00
  1.024390e+01    2.633219e+00
  1.035503e+01    2.654476e+00
  1.046616e+01    2.651938e+00
  1.057729e+01    2.604851e+00
  1.068842e+01    2.631642e+00
  1.079955e+01    2.536932e+00
  1.091068e+01    2.543082e+00
  1.102180e+01    2.523622e+00
  1.113293e+01    2.508703e+00
  1.124406e+01    2.470836e+00
  1.135519e+01    2.437296e+00
  1.146632e+01    2.442989e+00
  1.157745e+01    2.401987e+00
  1.168858e+01    2.412974e+00
  1.179971e+01    2.433565e+00
  1.191084e+01    2.377038e+00
  1.202197e+01    2.385884e+00
  1.213309e+01    2.376277e+00
  1.224422e+01    2.364963e+00
  1.235535e+01    2.396005e+00
  1.246648e+01    2.419091e+00
  1.257761e+01    2.423074e+00
  1.268874e+01    2.500607e+00
  1.279987e+01    2.711119e+00
  1.291100e+01    3.311368e+00
  1.302213e+01    5.762381e+00
  1.313326e+01    1.494020e+01
  1.324438e+01    1.695868e+01
  1.335551e+01    5.691585e+00
  1.346664e+01    3.254979e+00
  1.357777e+01    2.613573e+00
  1.368890e+01    2.392549e+00
  1.380003e+01    2.241128e+00
  1.391116e+01    2.202830e+00
  1.402229e+01    2.105640e+00
  1.413342e+01    2.095428e+00
  1.424455e+01    2.032302e+00
  1.435568e+01    1.992020e+00
  1.446680e+01    1.981680e+00
  1.457793e+01    1.984647e+00
  1.468906e+01    1.903598e+00
  1.480019e+01    1.930273e+00
  1.491132e+01    1.984039e+00
  1.502245e+01    2.243411e+00
  1.513358e+01    3.192871e+00
  1.524471e+01    6.008549e+00
  1.535584e+01    5.231488e+00
  1.546697e+01    2.552971e+00
  1.557809e+01    2.019260e+00
  1.568922e+01    1.814308e+00
  1.580035e+01    1.732363e+00
  1.591148e+01    1.696865e+00
  1.602261e+01    1.679600e+00
  1.613374e+01    1.595381e+00
  1.624487e+01    1.575059e+00
  1.635600e+01    1.617458e+00
  1.646713e+01    1.565531e+00
  1.657826e+01    1.559638e+00
  1.668938e+01    1.510172e+00
  1.680051e+01    1.512704e+00
  1.691164e+01    1.457535e+00
  1.702277e+01    1.450655e+00
  1.713390e+01    1.422064e+00
  1.724503e+01    1.435038e+00
  1.735616e+01    1.414099e+00
  1.746729e+01    1.396781e+00
  1.757842e+01    1.359424e+00
  1.768955e+01    1.347378e+00
  1.780067e+01    1.365780e+00
  1.791180e+01    1.312954e+00
  1.802293e+01    1.312086e+00
  1.813406e+01    1.305092e+00
  1.824519e+01    1.303067e+00
  1.835632e+01    1.286223e+00
  1.846745e+01    1.281207e+00
  1.857858e+01    1.286744e+00
  1.868971e+01    1.269995e+00
  1.880084e+01    1.229884e+00
  1.891196e+01    1.251116e+00
  1.902309e+01    1.236282e+00
  1.913422e+01    1.205410e+00
  1.924535e+01    1.218564e+00
  1.935648e+01    1.213403e+00
  1.946761e+01    1.180971e+00
  1.957874e+01    1.171231e+00
  1.968987e+01    1.176902e+00
  1.980100e+01    1.146268e+00
  1.991213e+01    1.137545e+00
  2.002325e+01    1.157719e+00
  2.013438e+01    1.116608e+00
  2.024551e+01    1.115753e+00
  2.035664e+01    1.117599e+00
  2.046777e+01    1.113045e+00
  2.057890e+01    1.146656e+00
  2.069003e+01    1.102742e+00
  2.080116e+01    1.105147e+00
  2.091229e+01    1.109947e+00
  2.102342e+01    1.079527e+00
  2.113455e+01    1.102657e+00
  2.124567e+01    1.137604e+00
  2.135680e+01    1.182491e+00
  2.146793e+01    1.253752e+00
  2.157906e+01    1.465772e+00
  2.169019e+01    2.085984e+00
  2.180132e+01    4.695380e+00
  2.191245e+01    1.055962e+01
  2.202358e+01    6.519418e+00
  2.213471e+01    2.435406e+00
  2.224584e+01    1.533984e+00
  2.235696e+01    1.227014e+00
  2.246809e+01    1.101203e+00
  2.257922e+01    1.040945e+00
  2.269035e+01    9.905553e-01
  2.280148e+01    9.615974e-01
  2.291261e+01    9.525476e-01
  2.302374e+01    9.316970e-01
  2.313487e+01    9.219667e-01
  2.324600e+01    8.919337e-01
  2.335713e+01    8.833469e-01
  2.346825e+01    8.723471e-01
  2.357938e+01    8.752002e-01
  2.369051e+01    8.571810e-01
  2.380164e+01    8.249415e-01
  2.391277e+01    8.321764e-01
  2.402390e+01    8.110263e-01
  2.413503e+01    8.026766e-01
  2.424616e+01    8.058717e-01
  2.435729e+01    8.132051e-01
  2.446842e+01    7.902926e-01
  2.457954e+01    8.043204e-01
  2.469067e+01    8.181210e-01
  2.480180e+01    8.271960e-01
  2.491293e+01    8.168299e-01
  2.502406e+01    8.153136e-01
  2.513519e+01    8.589790e-01
  2.524632e+01    8.701475e-01
  2.535745e+01    8.949181e-01
  2.546858e+01    9.543183e-01
  2.557971e+01    1.045324e+00
  2.569083e+01    1.335177e+00
  2.580196e+01    2.158158e+00
  2.591309e+01    5.398985e+00
  2.602422e+01    9.202600e+00
  2.613535e+01    3.835572e+00
  2.624648e+01    1.778383e+00
  2.635761e+01    1.197622e+00
  2.646874e+01    1.035326e+00
  2.657987e+01    9.731366e-01
  2.669100e+01    9.639048e-01
  2.680212e+01    9.173660e-01
  2.691325e+01    9.530132e-01
  2.702438e+01    1.028295e+00
  2.713551e+01    1.434766e+00
  2.724664e+01    2.499974e+00
  2.735777e+01    1.886047e+00
  2.746890e+01    1.137566e+00
  2.758003e+01    9.483081e-01
  2.769116e+01    8.761030e-01
  2.780229e+01    8.473636e-01
  2.791342e+01    8.126712e-01
  2.802454e+01    8.347040e-01
  2.813567e+01    8.126770e-01
  2.824680e+01    7.804322e-01
  2.835793e+01    7.766421e-01
  2.846906e+01    7.715366e-01
  2.858019e+01    7.859542e-01
  2.869132e+01    7.773587e-01
  2.880245e+01    7.757751e-01
  2.891358e+01    7.616303e-01
  2.902471e+01    7.501652e-01
  2.913583e+01    7.567798e-01
  2.924696e+01    7.691814e-01
  2.935809e+01    7.441005e-01
  2.946922e+01    7.442783e-01
  2.958035e+01    7.507889e-01
  2.969148e+01    7.160466e-01
  2.980261e+01    7.213134e-01
  2.991374e+01    7.242453e-01
  3.002487e+01    7.494325e-01
  3.013600e+01    7.412271e-01
  3.024712e+01    7.251846e-01
  3.035825e+01    7.224905e-01
  3.046938e+01    7.196243e-01
  3.058051e+01    7.364081e-01
  3.069164e+01    7.253422e-01
  3.080277e+01    7.112314e-01
  3.091390e+01    7.299891e-01
  3.102503e+01    7.426963e-01
  3.113616e+01    7.435212e-01
  3.124729e+01    7.475774e-01
  3.135841e+01    7.536767e-01
  3.146954e+01    7.762285e-01
  3.158067e+01    7.932145e-01
  3.169180e+01    8.939322e-01
  3.180293e+01    1.173282e+00
  3.191406e+01    2.209237e+00
  3.202519e+01    2.278218e+00
  3.213632e+01    1.175028e+00
  3.224745e+01    8.975056e-01
  3.235858e+01    7.875120e-01
  3.246970e+01    7.557644e-01
  3.254908e+01    7.470537e-01

File: 2024-07-27_002_Ru-CGO-ex_Activtation_ramp_000002_data_000006.dat
# == pyFAI calibration ==
# Distance Sample to Detector: 0.4 m
# PONI: 9.750e-02, 1.135e-01 m
# Rotations: -0.000175 0.000000 -0.000000 rad
#
# == Fit2d calibration ==
# Distance Sample-beamCenter: 400.000 mm
# Center: x=1514.000, y=1300.000 pix
# Tilt: 0.010 deg  TiltPlanRot: 0.010 deg
#
# Detector Detector	 Spline= None	 PixelSize= 7.500e-05, 7.500e-05 m
#    Detector has a mask: False
#    Detector has a dark current: False
#    detector has a flat field: False
#
# Wavelength: 6.888e-11 m
# Mask applied: user provided
# Dark current applied: False
# Flat field applied: False
# Polarization factor: 0.99
# Normalization factor: 1.0
# --> /home/myspot/data/2024_07_Rosario/Ru-CGO-ex/2024-07-27_002_Ru-CGO-ex_Activtation_ramp_000002_data_000006.dat
#       q_nm^-1             I
  2.003187e-02    7.711996e-02
  1.311609e-01    2.051406e-04
  2.422899e-01    1.689109e-02
  3.534189e-01    1.086254e-01
  4.645479e-01    7.956030e-02
  5.756770e-01    4.849045e-02
  6.868060e-01    4.013106e-02
  7.979350e-01    1.311707e-01
  9.090640e-01    5.381382e-01
  1.020193e+00    1.147455e+00
  1.131322e+00    1.455608e+00
  1.242451e+00    2.148781e+00
  1.353580e+00    2.646133e+00
  1.464709e+00    2.776018e+00
  1.575838e+00    3.213686e+00
  1.686967e+00    3.004971e+00
  1.798096e+00    2.913907e+00
  1.909225e+00    2.812356e+00
  2.020354e+00    2.779576e+00
  2.131483e+00    2.756734e+00
  2.242612e+00    2.668948e+00
  2.353741e+00    2.795071e+00
  2.464870e+00    2.858837e+00
  2.575999e+00    2.973576e+00
  2.687128e+00    2.946540e+00
  2.798257e+00    2.757544e+00
  2.909386e+00    2.915086e+00
  3.020515e+00    2.895720e+00
  3.131644e+00    2.937225e+00
  3.242773e+00    3.009730e+00
  3.353902e+00    2.988967e+00
  3.465031e+00    3.033985e+00
  3.576160e+00    3.034908e+00
  3.687289e+00    2.971625e+00
  3.798418e+00    2.986937e+00
  3.909547e+00    3.062976e+00
  4.020676e+00    3.049760e+00
  4.131806e+00    3.064999e+00
  4.242935e+00    2.999191e+00
  4.354064e+00    3.109490e+00
  4.465193e+00    3.094497e+00
  4.576322e+00    3.047416e+00
  4.687451e+00    3.178519e+00
  4.798580e+00    3.246306e+00
  4.909709e+00    3.181137e+00
  5.020838e+00    3.227702e+00
  5.131967e+00    3.154503e+00
  5.243096e+00    3.116582e+00
  5.354225e+00    3.211440e+00
  5.465354e+00    3.096761e+00
  5.576483e+00    3.067186e+00
  5.687612e+00    3.122062e+00
  5.798741e+00    3.068347e+00
  5.909870e+00    3.046819e+00
  6.020999e+00    3.013325e+00
  6.132128e+00    3.166163e+00
  6.243257e+00    2.993447e+00
  6.354386e+00    3.033113e+00
  6.465515e+00    3.083540e+00
  6.576644e+00    3.059568e+00
  6.687773e+00    3.053633e+00
  6.798902e+00    3.057873e+00
  6.910031e+00    3.024988e+00
  7.021160e+00    2.964806e+00
  7.132289e+00    3.003396e+00
  7.243418e+00    3.096794e+00
  7.354547e+00    3.030061e+00
  7.465676e+00    2.967918e+00
  7.576805e+00    3.079022e+00
  7.687934e+00    2.972624e+00
  7.799063e+00    3.013440e+00
  7.910192e+00    2.959329e+00
  8.021321e+00    2.956767e+00
  8.132450e+00    2.993686e+00
  8.243579e+00    2.970773e+00
  8.354708e+00    2.967461e+00
  8.465837e+00    2.905764e+00
  8.576966e+00    2.929565e+00
  8.688095e+00    2.961238e+00
  8.799224e+00    2.927672e+00
  8.910353e+00    2.872039e+00
  9.021482e+00    2.872800e+00
  9.132611e+00    2.831894e+00
  9.243740e+00    2.848532e+00
  9.354869e+00    2.844237e+00
  9.465998e+00    2.771415e+00
  9.577127e+00    2.820121e+00
  9.688256e+00    2.750061e+00
  9.799385e+00    2.753902e+00
  9.910514e+00    2.746758e+00
  1.002164e+01    2.692610e+00
  1.013277e+01    2.669242e+00
  1.024390e+01    2.660753e+00
  1.035503e+01    2.671409e+00
  1.046616e+01    2.627391e+00
  1.057729e+01    2.577620e+00
  1.068842e+01    2.602454e+00
  1.079955e+01    2.671106e+00
  1.091068e+01    2.488204e+00
  1.102180e+01    2.544429e+00
  1.113293e+01    2.507900e+00
  1.124406e+01    2.463116e+00
  1.135519e+01    2.456340e+00
  1.146632e+01    2.456066e+00
  1.157745e+01    2.412496e+00
  1.168858e+01    2.456159e+00
  1.179971e+01    2.371238e+00
  1.191084e+01    2.400502e+00
  1.202197e+01    2.371448e+00
  1.213309e+01    2.380160e+00
  1.224422e+01    2.344472e+00
  1.235535e+01    2.374172e+00
  1.246648e+01    2.401839e+00
  1.257761e+01    2.420633e+00
  1.268874e+01    2.441874e+00
  1.279987e+01    2.734010e+00
  1.291100e+01    3.272234e+00
  1.302213e+01    5.779925e+00
  1.313326e+01    1.501012e+01
  1.324438e+01    1.679623e+01
  1.335551e+01    5.628582e+00
  1.346664e+01    3.200839e+00
  1.357777e+01    2.576073e+00
  1.368890e+01    2.332768e+00
  1.380003e+01    2.223692e+00
  1.391116e+01    2.131873e+00
  1.402229e+01    2.087364e+00
  1.413342e+01    2.061598e+00
  1.424455e+01    2.048684e+00
  1.435568e+01    2.016194e+00
  1.446680e+01    1.956588e+00
  1.457793e+01    1.957792e+00
  1.468906e+01    1.912499e+00
  1.480019e+01    1.966550e+00
  1.491132e+01    1.969249e+00
  1.502245e+01    2.198700e+00
  1.513358e+01    3.199850e+00
  1.524471e+01    6.079089e+00
  1.535584e+01    5.223788e+00
  1.546697e+01    2.549627e+00
  1.557809e+01    2.016438e+00
  1.568922e+01    1.801537e+00
  1.580035e+01    1.715656e+00
  1.591148e+01    1.691333e+00
  1.602261e+01    1.655594e+00
  1.613374e+01    1.616666e+00
  1.624487e+01    1.558443e+00
  1.635600e+01    1.573038e+00
  1.646713e+01    1.558675e+00
  1.657826e+01    1.530459e+00
  1.668938e+01    1.518129e+00
  1.680051e+01    1.466987e+00
  1.691164e+01    1.497602e+00
  1.702277e+01    1.433313e+00
  1.713390e+01    1.455299e+00
  1.724503e+01    1.428864e+00
  1.735616e+01    1.418514e+00
  1.746729e+01    1.419208e+00
  1.757842e+01    1.380037e+00
  1.768955e+01    1.351383e+00
  1.780067e+01    1.377545e+00
  1.791180e+01    1.344602e+00
  1.802293e+01    1.344744e+00
  1.813406e+01    1.302700e+00
  1.824519e+01    1.286379e+00
  1.835632e+01    1.294124e+00
  1.846745e+01    1.290970e+00
  1.857858e+01    1.300777e+00
  1.868971e+01    1.277231e+00
  1.880084e+01    1.249029e+00
  1.891196e+01    1.216268e+00
  1.902309e+01    1.233441e+00
  1.913422e+01    1.221000e+00
  1.924535e+01    1.224998e+00
  1.935648e+01    1.204524e+00
  1.946761e+01    1.212560e+00
  1.957874e+01    1.193693e+00
  1.968987e+01    1.172868e+00
  1.980100e+01    1.165170e+00
  1.991213e+01    1.141746e+00
  2.002325e+01    1.154546e+00
  2.013438e+01    1.137986e+00
  2.024551e+01    1.101375e+00
  2.035664e+01    1.129853e+00
  2.046777e+01    1.116869e+00
  2.057890e+01    1.130477e+00
  2.069003e+01    1.094590e+00
  2.080116e+01    1.101179e+00
  2.091229e+01    1.123658e+00
  2.102342e+01    1.117066e+00
  2.113455e+01    1.107365e+00
  2.124567e+01    1.120570e+00
  2.135680e+01    1.177068e+00
  2.146793e+01    1.249311e+00
  2.157906e+01    1.434080e+00
  2.169019e+01    2.084314e+00
  2.180132e+01    4.706538e+00
  2.191245e+01    1.056996e+01
  2.202358e+01    6.472025e+00
  2.213471e+01    2.454512e+00
  2.224584e+01    1.496501e+00
  2.235696e+01    1.240837e+00
  2.246809e+01    1.114980e+00
  2.257922e+01    1.046206e+00
  2.269035e+01    1.011386e+00
  2.280148e+01    9.553222e-01
  2.291261e+01    9.318280e-01
  2.302374e+01    9.320099e-01
  2.313487e+01    9.177810e-01
  2.324600e+01    8.903222e-01
  2.335713e+01    8.580604e-01
  2.346825e+01    8.798987e-01
  2.357938e+01    8.711404e-01
  2.369051e+01    8.464859e-01
  2.380164e+01    8.240495e-01
  2.391277e+01    8.214409e-01
  2.402390e+01    8.050967e-01
  2.413503e+01    8.112587e-01
  2.424616e+01    7.847180e-01
  2.435729e+01    7.961010e-01
  2.446842e+01    8.135991e-01
  2.457954e+01    8.176662e-01
  2.469067e+01    8.058160e-01
  2.480180e+01    8.081493e-01
  2.491293e+01    8.143394e-01
  2.502406e+01    8.344810e-01
  2.513519e+01    8.346171e-01
  2.524632e+01    8.772468e-01
  2.535745e+01    8.911961e-01
  2.546858e+01    9.368420e-01
  2.557971e+01    1.065972e+00
  2.569083e+01    1.326252e+00
  2.580196e+01    2.152836e+00
  2.591309e+01    5.380401e+00
  2.602422e+01    9.277407e+00
  2.613535e+01    3.808834e+00
  2.624648e+01    1.744288e+00
  2.635761e+01    1.209632e+00
  2.646874e+01    1.049712e+00
  2.657987e+01    9.815270e-01
  2.669100e+01    9.474759e-01
  2.680212e+01    9.307445e-01
  2.691325e+01    9.577607e-01
  2.702438e+01    1.018657e+00
  2.713551e+01    1.449253e+00
  2.724664e+01    2.564912e+00
  2.735777e+01    1.884693e+00
  2.746890e+01    1.121211e+00
  2.758003e+01    9.267468e-01
  2.769116e+01    8.545848e-01
  2.780229e+01    8.506780e-01
  2.791342e+01    8.334970e-01
  2.802454e+01    8.101704e-01
  2.813567e+01    8.085005e-01
  2.824680e+01    7.935258e-01
  2.835793e+01    7.850241e-01
  2.846906e+01    7.598407e-01
  2.858019e+01    7.710994e-01
  2.869132e+01    7.629467e-01
  2.880245e+01    7.731957e-01
  2.891358e+01    7.681793e-01
  2.902471e+01    7.635872e-01
  2.913583e+01    7.516672e-01
  2.924696e+01    7.275558e-01
  2.935809e+01    7.792342e-01
  2.946922e+01    7.321413e-01
  2.958035e+01    7.291408e-01
  2.969148e+01    7.446690e-01
  2.980261e+01    7.309133e-01
  2.991374e+01    7.396439e-01
  3.002487e+01    7.435151e-01
  3.013600e+01    7.343176e-01
  3.024712e+01    7.364444e-01
  3.035825e+01    7.343382e-01
  3.046938e+01    7.236964e-01
  3.058051e+01    7.276571e-01
  3.069164e+01    7.155181e-01
  3.080277e+01    7.200929e-01
  3.091390e+01    7.377340e-01
  3.102503e+01    7.563729e-01
  3.113616e+01    7.411796e-01
  3.124729e+01    7.731673e-01
  3.135841e+01    7.404199e-01
  3.146954e+01    7.607002e-01
  3.158067e+01    8.070726e-01
  3.169180e+01    8.985012e-01
  3.180293e+01    1.184971e+00
  3.191406e+01    2.165814e+00
  3.202519e+01    2.272082e+00
  3.213632e+01    1.159010e+00
  3.224745e+01    8.633550e-01
  3.235858e+01    7.661718e-01
  3.246970e+01    7.811329e-01
  3.254908e+01    7.584661e-01