Folder: myspot_2024_07/XRD (part 29)

File: 2024-07-27_002_Ru-CGO-ex_Activtation_ramp_000002_data_000118.dat
# == pyFAI calibration ==
# Distance Sample to Detector: 0.4 m
# PONI: 9.750e-02, 1.135e-01 m
# Rotations: -0.000175 0.000000 -0.000000 rad
#
# == Fit2d calibration ==
# Distance Sample-beamCenter: 400.000 mm
# Center: x=1514.000, y=1300.000 pix
# Tilt: 0.010 deg  TiltPlanRot: 0.010 deg
#
# Detector Detector	 Spline= None	 PixelSize= 7.500e-05, 7.500e-05 m
#    Detector has a mask: False
#    Detector has a dark current: False
#    detector has a flat field: False
#
# Wavelength: 6.888e-11 m
# Mask applied: user provided
# Dark current applied: False
# Flat field applied: False
# Polarization factor: 0.99
# Normalization factor: 1.0
# --> /home/myspot/data/2024_07_Rosario/Ru-CGO-ex/2024-07-27_002_Ru-CGO-ex_Activtation_ramp_000002_data_000118.dat
#       q_nm^-1             I
  2.003187e-02    0.000000e+00
  1.311609e-01    1.689321e-02
  2.422899e-01    2.352587e-02
  3.534189e-01    1.284390e-02
  4.645479e-01    3.274272e-02
  5.756770e-01    1.637427e-02
  6.868060e-01    7.238460e-02
  7.979350e-01    1.598125e-01
  9.090640e-01    4.986706e-01
  1.020193e+00    1.012088e+00
  1.131322e+00    1.446084e+00
  1.242451e+00    2.070890e+00
  1.353580e+00    2.542700e+00
  1.464709e+00    2.748667e+00
  1.575838e+00    2.845852e+00
  1.686967e+00    2.770387e+00
  1.798096e+00    2.678155e+00
  1.909225e+00    2.541994e+00
  2.020354e+00    2.686888e+00
  2.131483e+00    2.562330e+00
  2.242612e+00    2.728066e+00
  2.353741e+00    2.791240e+00
  2.464870e+00    2.753565e+00
  2.575999e+00    2.752044e+00
  2.687128e+00    2.732396e+00
  2.798257e+00    2.721385e+00
  2.909386e+00    2.846881e+00
  3.020515e+00    2.815236e+00
  3.131644e+00    2.812802e+00
  3.242773e+00    2.958131e+00
  3.353902e+00    2.813186e+00
  3.465031e+00    2.856357e+00
  3.576160e+00    2.902998e+00
  3.687289e+00    3.009542e+00
  3.798418e+00    2.941218e+00
  3.909547e+00    2.925631e+00
  4.020676e+00    3.018092e+00
  4.131806e+00    2.998915e+00
  4.242935e+00    2.964629e+00
  4.354064e+00    3.057289e+00
  4.465193e+00    3.005175e+00
  4.576322e+00    2.974917e+00
  4.687451e+00    3.043352e+00
  4.798580e+00    3.014880e+00
  4.909709e+00    3.023297e+00
  5.020838e+00    3.134830e+00
  5.131967e+00    3.038450e+00
  5.243096e+00    3.112596e+00
  5.354225e+00    3.075373e+00
  5.465354e+00    2.970830e+00
  5.576483e+00    2.940542e+00
  5.687612e+00    3.035499e+00
  5.798741e+00    2.984430e+00
  5.909870e+00    2.898403e+00
  6.020999e+00    2.938503e+00
  6.132128e+00    3.034570e+00
  6.243257e+00    3.017933e+00
  6.354386e+00    2.999959e+00
  6.465515e+00    2.933479e+00
  6.576644e+00    3.028025e+00
  6.687773e+00    2.977409e+00
  6.798902e+00    3.011746e+00
  6.910031e+00    2.987165e+00
  7.021160e+00    2.918824e+00
  7.132289e+00    2.942406e+00
  7.243418e+00    2.978956e+00
  7.354547e+00    2.866608e+00
  7.465676e+00    2.985043e+00
  7.576805e+00    2.895520e+00
  7.687934e+00    2.848020e+00
  7.799063e+00    2.863930e+00
  7.910192e+00    2.866755e+00
  8.021321e+00    2.844382e+00
  8.132450e+00    2.925418e+00
  8.243579e+00    2.896347e+00
  8.354708e+00    2.797241e+00
  8.465837e+00    2.859492e+00
  8.576966e+00    2.875998e+00
  8.688095e+00    2.818318e+00
  8.799224e+00    2.755940e+00
  8.910353e+00    2.803548e+00
  9.021482e+00    2.731285e+00
  9.132611e+00    2.766810e+00
  9.243740e+00    2.735804e+00
  9.354869e+00    2.710803e+00
  9.465998e+00    2.714815e+00
  9.577127e+00    2.710485e+00
  9.688256e+00    2.640089e+00
  9.799385e+00    2.672476e+00
  9.910514e+00    2.647420e+00
  1.002164e+01    2.653597e+00
  1.013277e+01    2.582534e+00
  1.024390e+01    2.559281e+00
  1.035503e+01    2.557570e+00
  1.046616e+01    2.617132e+00
  1.057729e+01    2.513883e+00
  1.068842e+01    2.476243e+00
  1.079955e+01    2.531863e+00
  1.091068e+01    2.493419e+00
  1.102180e+01    2.420663e+00
  1.113293e+01    2.434445e+00
  1.124406e+01    2.353739e+00
  1.135519e+01    2.415163e+00
  1.146632e+01    2.371444e+00
  1.157745e+01    2.332579e+00
  1.168858e+01    2.370239e+00
  1.179971e+01    2.330822e+00
  1.191084e+01    2.276132e+00
  1.202197e+01    2.323525e+00
  1.213309e+01    2.277586e+00
  1.224422e+01    2.235080e+00
  1.235535e+01    2.287142e+00
  1.246648e+01    2.322380e+00
  1.257761e+01    2.350479e+00
  1.268874e+01    2.452007e+00
  1.279987e+01    2.586274e+00
  1.291100e+01    3.253835e+00
  1.302213e+01    6.113331e+00
  1.313326e+01    1.452519e+01
  1.324438e+01    1.215323e+01
  1.335551e+01    4.438898e+00
  1.346664e+01    2.924163e+00
  1.357777e+01    2.416902e+00
  1.368890e+01    2.254708e+00
  1.380003e+01    2.131470e+00
  1.391116e+01    2.083602e+00
  1.402229e+01    2.023550e+00
  1.413342e+01    1.994885e+00
  1.424455e+01    1.951890e+00
  1.435568e+01    1.921373e+00
  1.446680e+01    1.895470e+00
  1.457793e+01    1.855479e+00
  1.468906e+01    1.853999e+00
  1.480019e+01    1.882852e+00
  1.491132e+01    1.946066e+00
  1.502245e+01    2.190490e+00
  1.513358e+01    3.407409e+00
  1.524471e+01    5.664277e+00
  1.535584e+01    3.874453e+00
  1.546697e+01    2.234709e+00
  1.557809e+01    1.846608e+00
  1.568922e+01    1.730395e+00
  1.580035e+01    1.674399e+00
  1.591148e+01    1.643066e+00
  1.602261e+01    1.582213e+00
  1.613374e+01    1.570727e+00
  1.624487e+01    1.514488e+00
  1.635600e+01    1.507022e+00
  1.646713e+01    1.466888e+00
  1.657826e+01    1.441531e+00
  1.668938e+01    1.454367e+00
  1.680051e+01    1.435778e+00
  1.691164e+01    1.429740e+00
  1.702277e+01    1.401310e+00
  1.713390e+01    1.398662e+00
  1.724503e+01    1.374499e+00
  1.735616e+01    1.341895e+00
  1.746729e+01    1.363069e+00
  1.757842e+01    1.328244e+00
  1.768955e+01    1.327689e+00
  1.780067e+01    1.277000e+00
  1.791180e+01    1.275913e+00
  1.802293e+01    1.297558e+00
  1.813406e+01    1.290340e+00
  1.824519e+01    1.244474e+00
  1.835632e+01    1.244995e+00
  1.846745e+01    1.243512e+00
  1.857858e+01    1.237073e+00
  1.868971e+01    1.203834e+00
  1.880084e+01    1.211435e+00
  1.891196e+01    1.150533e+00
  1.902309e+01    1.183327e+00
  1.913422e+01    1.154918e+00
  1.924535e+01    1.147487e+00
  1.935648e+01    1.156086e+00
  1.946761e+01    1.147012e+00
  1.957874e+01    1.171765e+00
  1.968987e+01    1.124365e+00
  1.980100e+01    1.099466e+00
  1.991213e+01    1.094677e+00
  2.002325e+01    1.097916e+00
  2.013438e+01    1.086853e+00
  2.024551e+01    1.061020e+00
  2.035664e+01    1.087496e+00
  2.046777e+01    1.052568e+00
  2.057890e+01    1.073483e+00
  2.069003e+01    1.070975e+00
  2.080116e+01    1.045453e+00
  2.091229e+01    1.035202e+00
  2.102342e+01    1.052443e+00
  2.113455e+01    1.074793e+00
  2.124567e+01    1.117250e+00
  2.135680e+01    1.124215e+00
  2.146793e+01    1.217310e+00
  2.157906e+01    1.462268e+00
  2.169019e+01    2.272266e+00
  2.180132e+01    5.410915e+00
  2.191245e+01    9.535448e+00
  2.202358e+01    4.010880e+00
  2.213471e+01    1.844027e+00
  2.224584e+01    1.329424e+00
  2.235696e+01    1.099637e+00
  2.246809e+01    1.047540e+00
  2.257922e+01    9.641438e-01
  2.269035e+01    9.175567e-01
  2.280148e+01    9.229380e-01
  2.291261e+01    9.085884e-01
  2.302374e+01    8.887601e-01
  2.313487e+01    8.466303e-01
  2.324600e+01    8.636055e-01
  2.335713e+01    8.496380e-01
  2.346825e+01    8.447472e-01
  2.357938e+01    8.176312e-01
  2.369051e+01    8.199536e-01
  2.380164e+01    8.164988e-01
  2.391277e+01    7.952883e-01
  2.402390e+01    7.787270e-01
  2.413503e+01    7.672679e-01
  2.424616e+01    7.914901e-01
  2.435729e+01    7.980045e-01
  2.446842e+01    8.045551e-01
  2.457954e+01    7.745897e-01
  2.469067e+01    7.677545e-01
  2.480180e+01    7.831805e-01
  2.491293e+01    7.756657e-01
  2.502406e+01    7.833087e-01
  2.513519e+01    8.097160e-01
  2.524632e+01    8.310021e-01
  2.535745e+01    8.731711e-01
  2.546858e+01    9.296345e-01
  2.557971e+01    1.040760e+00
  2.569083e+01    1.379615e+00
  2.580196e+01    2.518209e+00
  2.591309e+01    6.254013e+00
  2.602422e+01    6.427026e+00
  2.613535e+01    2.397605e+00
  2.624648e+01    1.363917e+00
  2.635761e+01    1.065785e+00
  2.646874e+01    9.542152e-01
  2.657987e+01    9.158674e-01
  2.669100e+01    9.070773e-01
  2.680212e+01    8.826643e-01
  2.691325e+01    9.146935e-01
  2.702438e+01    1.051481e+00
  2.713551e+01    1.574926e+00
  2.724664e+01    2.249842e+00
  2.735777e+01    1.347312e+00
  2.746890e+01    9.945026e-01
  2.758003e+01    8.645015e-01
  2.769116e+01    8.411867e-01
  2.780229e+01    7.986964e-01
  2.791342e+01    7.927943e-01
  2.802454e+01    7.648185e-01
  2.813567e+01    7.658955e-01
  2.824680e+01    7.571800e-01
  2.835793e+01    7.631112e-01
  2.846906e+01    7.587609e-01
  2.858019e+01    7.433569e-01
  2.869132e+01    7.581514e-01
  2.880245e+01    7.358941e-01
  2.891358e+01    7.491631e-01
  2.902471e+01    7.332007e-01
  2.913583e+01    7.174910e-01
  2.924696e+01    7.367428e-01
  2.935809e+01    7.281832e-01
  2.946922e+01    7.375606e-01
  2.958035e+01    6.982101e-01
  2.969148e+01    7.108356e-01
  2.980261e+01    7.281356e-01
  2.991374e+01    7.165220e-01
  3.002487e+01    7.120430e-01
  3.013600e+01    7.129115e-01
  3.024712e+01    7.262777e-01
  3.035825e+01    7.057639e-01
  3.046938e+01    6.989837e-01
  3.058051e+01    7.117143e-01
  3.069164e+01    6.948121e-01
  3.080277e+01    7.174076e-01
  3.091390e+01    7.176588e-01
  3.102503e+01    7.173073e-01
  3.113616e+01    7.153172e-01
  3.124729e+01    7.426538e-01
  3.135841e+01    7.299755e-01
  3.146954e+01    7.552810e-01
  3.158067e+01    7.973621e-01
  3.169180e+01    9.163980e-01
  3.180293e+01    1.363486e+00
  3.191406e+01    2.253351e+00
  3.202519e+01    1.440817e+00
  3.213632e+01    9.144909e-01
  3.224745e+01    8.011748e-01
  3.235858e+01    7.393104e-01
  3.246970e+01    7.113946e-01
  3.254908e+01    7.160963e-01

File: 2024-07-27_002_Ru-CGO-ex_Activtation_ramp_000002_data_000120.dat
# == pyFAI calibration ==
# Distance Sample to Detector: 0.4 m
# PONI: 9.750e-02, 1.135e-01 m
# Rotations: -0.000175 0.000000 -0.000000 rad
#
# == Fit2d calibration ==
# Distance Sample-beamCenter: 400.000 mm
# Center: x=1514.000, y=1300.000 pix
# Tilt: 0.010 deg  TiltPlanRot: 0.010 deg
#
# Detector Detector	 Spline= None	 PixelSize= 7.500e-05, 7.500e-05 m
#    Detector has a mask: False
#    Detector has a dark current: False
#    detector has a flat field: False
#
# Wavelength: 6.888e-11 m
# Mask applied: user provided
# Dark current applied: False
# Flat field applied: False
# Polarization factor: 0.99
# Normalization factor: 1.0
# --> /home/myspot/data/2024_07_Rosario/Ru-CGO-ex/2024-07-27_002_Ru-CGO-ex_Activtation_ramp_000002_data_000120.dat
#       q_nm^-1             I
  2.003187e-02    9.938993e-02
  1.311609e-01    7.124533e-02
  2.422899e-01    4.766790e-02
  3.534189e-01    2.467852e-02
  4.645479e-01    1.456420e-02
  5.756770e-01    2.892353e-02
  6.868060e-01    4.453767e-02
  7.979350e-01    1.527649e-01
  9.090640e-01    6.130302e-01
  1.020193e+00    9.405098e-01
  1.131322e+00    1.439835e+00
  1.242451e+00    2.136100e+00
  1.353580e+00    2.461078e+00
  1.464709e+00    2.655021e+00
  1.575838e+00    2.881020e+00
  1.686967e+00    2.861177e+00
  1.798096e+00    2.656160e+00
  1.909225e+00    2.650883e+00
  2.020354e+00    2.647566e+00
  2.131483e+00    2.695832e+00
  2.242612e+00    2.738089e+00
  2.353741e+00    2.707862e+00
  2.464870e+00    2.690744e+00
  2.575999e+00    2.807369e+00
  2.687128e+00    2.705093e+00
  2.798257e+00    2.793913e+00
  2.909386e+00    2.825088e+00
  3.020515e+00    2.769113e+00
  3.131644e+00    2.859507e+00
  3.242773e+00    2.901540e+00
  3.353902e+00    2.918374e+00
  3.465031e+00    2.884277e+00
  3.576160e+00    2.946792e+00
  3.687289e+00    2.879578e+00
  3.798418e+00    2.982884e+00
  3.909547e+00    2.968751e+00
  4.020676e+00    2.977418e+00
  4.131806e+00    3.005903e+00
  4.242935e+00    2.904637e+00
  4.354064e+00    3.016748e+00
  4.465193e+00    3.061700e+00
  4.576322e+00    3.025598e+00
  4.687451e+00    3.052979e+00
  4.798580e+00    3.044188e+00
  4.909709e+00    3.067989e+00
  5.020838e+00    3.059405e+00
  5.131967e+00    3.090465e+00
  5.243096e+00    3.091039e+00
  5.354225e+00    3.073667e+00
  5.465354e+00    3.045027e+00
  5.576483e+00    2.958273e+00
  5.687612e+00    2.993097e+00
  5.798741e+00    2.985728e+00
  5.909870e+00    2.954767e+00
  6.020999e+00    2.961433e+00
  6.132128e+00    2.978802e+00
  6.243257e+00    3.024193e+00
  6.354386e+00    3.005192e+00
  6.465515e+00    2.965944e+00
  6.576644e+00    2.898159e+00
  6.687773e+00    2.976985e+00
  6.798902e+00    2.935946e+00
  6.910031e+00    2.947370e+00
  7.021160e+00    2.953143e+00
  7.132289e+00    2.953796e+00
  7.243418e+00    2.949143e+00
  7.354547e+00    2.948393e+00
  7.465676e+00    2.930557e+00
  7.576805e+00    2.892356e+00
  7.687934e+00    2.896875e+00
  7.799063e+00    2.867600e+00
  7.910192e+00    2.909013e+00
  8.021321e+00    2.831261e+00
  8.132450e+00    2.901938e+00
  8.243579e+00    2.953278e+00
  8.354708e+00    2.908517e+00
  8.465837e+00    2.886744e+00
  8.576966e+00    2.782620e+00
  8.688095e+00    2.768986e+00
  8.799224e+00    2.801031e+00
  8.910353e+00    2.790067e+00
  9.021482e+00    2.761774e+00
  9.132611e+00    2.767309e+00
  9.243740e+00    2.704741e+00
  9.354869e+00    2.746022e+00
  9.465998e+00    2.695975e+00
  9.577127e+00    2.701767e+00
  9.688256e+00    2.671582e+00
  9.799385e+00    2.657517e+00
  9.910514e+00    2.656045e+00
  1.002164e+01    2.680805e+00
  1.013277e+01    2.618750e+00
  1.024390e+01    2.582780e+00
  1.035503e+01    2.552593e+00
  1.046616e+01    2.584361e+00
  1.057729e+01    2.534597e+00
  1.068842e+01    2.562130e+00
  1.079955e+01    2.503047e+00
  1.091068e+01    2.471195e+00
  1.102180e+01    2.377444e+00
  1.113293e+01    2.413768e+00
  1.124406e+01    2.384710e+00
  1.135519e+01    2.419049e+00
  1.146632e+01    2.370969e+00
  1.157745e+01    2.349006e+00
  1.168858e+01    2.363587e+00
  1.179971e+01    2.295685e+00
  1.191084e+01    2.298792e+00
  1.202197e+01    2.332919e+00
  1.213309e+01    2.253669e+00
  1.224422e+01    2.340430e+00
  1.235535e+01    2.233391e+00
  1.246648e+01    2.277591e+00
  1.257761e+01    2.338697e+00
  1.268874e+01    2.443417e+00
  1.279987e+01    2.627625e+00
  1.291100e+01    3.264636e+00
  1.302213e+01    6.088513e+00
  1.313326e+01    1.454937e+01
  1.324438e+01    1.216146e+01
  1.335551e+01    4.373317e+00
  1.346664e+01    2.893212e+00
  1.357777e+01    2.399328e+00
  1.368890e+01    2.240345e+00
  1.380003e+01    2.120604e+00
  1.391116e+01    1.999900e+00
  1.402229e+01    2.041765e+00
  1.413342e+01    2.010149e+00
  1.424455e+01    1.934691e+00
  1.435568e+01    1.895307e+00
  1.446680e+01    1.907166e+00
  1.457793e+01    1.899382e+00
  1.468906e+01    1.879840e+00
  1.480019e+01    1.894582e+00
  1.491132e+01    1.930295e+00
  1.502245e+01    2.184577e+00
  1.513358e+01    3.427848e+00
  1.524471e+01    5.679078e+00
  1.535584e+01    3.892587e+00
  1.546697e+01    2.199298e+00
  1.557809e+01    1.829847e+00
  1.568922e+01    1.739345e+00
  1.580035e+01    1.652214e+00
  1.591148e+01    1.600950e+00
  1.602261e+01    1.608188e+00
  1.613374e+01    1.564339e+00
  1.624487e+01    1.509384e+00
  1.635600e+01    1.524289e+00
  1.646713e+01    1.499939e+00
  1.657826e+01    1.489905e+00
  1.668938e+01    1.476161e+00
  1.680051e+01    1.427296e+00
  1.691164e+01    1.412490e+00
  1.702277e+01    1.412833e+00
  1.713390e+01    1.403468e+00
  1.724503e+01    1.366730e+00
  1.735616e+01    1.358413e+00
  1.746729e+01    1.355813e+00
  1.757842e+01    1.355189e+00
  1.768955e+01    1.318294e+00
  1.780067e+01    1.283107e+00
  1.791180e+01    1.311661e+00
  1.802293e+01    1.245717e+00
  1.813406e+01    1.249740e+00
  1.824519e+01    1.235347e+00
  1.835632e+01    1.273430e+00
  1.846745e+01    1.206422e+00
  1.857858e+01    1.219398e+00
  1.868971e+01    1.203226e+00
  1.880084e+01    1.194413e+00
  1.891196e+01    1.180354e+00
  1.902309e+01    1.174333e+00
  1.913422e+01    1.182629e+00
  1.924535e+01    1.191130e+00
  1.935648e+01    1.115308e+00
  1.946761e+01    1.124318e+00
  1.957874e+01    1.137146e+00
  1.968987e+01    1.123240e+00
  1.980100e+01    1.114998e+00
  1.991213e+01    1.106937e+00
  2.002325e+01    1.116611e+00
  2.013438e+01    1.096137e+00
  2.024551e+01    1.063398e+00
  2.035664e+01    1.099337e+00
  2.046777e+01    1.071358e+00
  2.057890e+01    1.085083e+00
  2.069003e+01    1.079562e+00
  2.080116e+01    1.037815e+00
  2.091229e+01    1.060278e+00
  2.102342e+01    1.051758e+00
  2.113455e+01    1.061023e+00
  2.124567e+01    1.083469e+00
  2.135680e+01    1.113280e+00
  2.146793e+01    1.238563e+00
  2.157906e+01    1.453504e+00
  2.169019e+01    2.254083e+00
  2.180132e+01    5.314920e+00
  2.191245e+01    9.462625e+00
  2.202358e+01    4.080031e+00
  2.213471e+01    1.882511e+00
  2.224584e+01    1.322559e+00
  2.235696e+01    1.108268e+00
  2.246809e+01    1.019013e+00
  2.257922e+01    9.857382e-01
  2.269035e+01    9.540105e-01
  2.280148e+01    9.345676e-01
  2.291261e+01    9.011574e-01
  2.302374e+01    9.145906e-01
  2.313487e+01    8.432379e-01
  2.324600e+01    8.689381e-01
  2.335713e+01    8.501276e-01
  2.346825e+01    8.543563e-01
  2.357938e+01    8.320959e-01
  2.369051e+01    8.233087e-01
  2.380164e+01    8.153316e-01
  2.391277e+01    7.847639e-01
  2.402390e+01    7.808670e-01
  2.413503e+01    7.686241e-01
  2.424616e+01    7.822184e-01
  2.435729e+01    7.700585e-01
  2.446842e+01    7.754933e-01
  2.457954e+01    7.896811e-01
  2.469067e+01    7.772672e-01
  2.480180e+01    7.886838e-01
  2.491293e+01    7.717727e-01
  2.502406e+01    7.738541e-01
  2.513519e+01    8.069641e-01
  2.524632e+01    8.141623e-01
  2.535745e+01    8.838163e-01
  2.546858e+01    9.466731e-01
  2.557971e+01    1.067985e+00
  2.569083e+01    1.374340e+00
  2.580196e+01    2.516312e+00
  2.591309e+01    6.104322e+00
  2.602422e+01    6.511064e+00
  2.613535e+01    2.386276e+00
  2.624648e+01    1.358415e+00
  2.635761e+01    1.045425e+00
  2.646874e+01    9.476638e-01
  2.657987e+01    8.883685e-01
  2.669100e+01    8.819596e-01
  2.680212e+01    8.787164e-01
  2.691325e+01    9.286167e-01
  2.702438e+01    1.059078e+00
  2.713551e+01    1.578516e+00
  2.724664e+01    2.288227e+00
  2.735777e+01    1.344987e+00
  2.746890e+01    9.681692e-01
  2.758003e+01    8.629602e-01
  2.769116e+01    8.281726e-01
  2.780229e+01    7.973027e-01
  2.791342e+01    7.676655e-01
  2.802454e+01    7.705949e-01
  2.813567e+01    7.708377e-01
  2.824680e+01    7.551771e-01
  2.835793e+01    7.369511e-01
  2.846906e+01    7.393436e-01
  2.858019e+01    7.445352e-01
  2.869132e+01    7.503368e-01
  2.880245e+01    7.204038e-01
  2.891358e+01    7.208650e-01
  2.902471e+01    7.399170e-01
  2.913583e+01    7.258581e-01
  2.924696e+01    7.221581e-01
  2.935809e+01    7.185158e-01
  2.946922e+01    7.155303e-01
  2.958035e+01    7.210114e-01
  2.969148e+01    7.202582e-01
  2.980261e+01    7.163499e-01
  2.991374e+01    7.024813e-01
  3.002487e+01    7.173966e-01
  3.013600e+01    7.407866e-01
  3.024712e+01    7.202690e-01
  3.035825e+01    7.145947e-01
  3.046938e+01    7.116258e-01
  3.058051e+01    7.163004e-01
  3.069164e+01    7.008880e-01
  3.080277e+01    7.040015e-01
  3.091390e+01    7.187710e-01
  3.102503e+01    7.025637e-01
  3.113616e+01    7.385727e-01
  3.124729e+01    7.226788e-01
  3.135841e+01    7.208451e-01
  3.146954e+01    7.413763e-01
  3.158067e+01    8.028812e-01
  3.169180e+01    8.891239e-01
  3.180293e+01    1.337246e+00
  3.191406e+01    2.213937e+00
  3.202519e+01    1.498340e+00
  3.213632e+01    9.396097e-01
  3.224745e+01    7.925905e-01
  3.235858e+01    7.456074e-01
  3.246970e+01    7.393020e-01
  3.254908e+01    7.171271e-01