Folder: myspot_2024_07/XRD (part 22)

File: 2024-07-27_002_Ru-CGO-ex_Activtation_ramp_000002_data_000090.dat
# == pyFAI calibration ==
# Distance Sample to Detector: 0.4 m
# PONI: 9.750e-02, 1.135e-01 m
# Rotations: -0.000175 0.000000 -0.000000 rad
#
# == Fit2d calibration ==
# Distance Sample-beamCenter: 400.000 mm
# Center: x=1514.000, y=1300.000 pix
# Tilt: 0.010 deg  TiltPlanRot: 0.010 deg
#
# Detector Detector	 Spline= None	 PixelSize= 7.500e-05, 7.500e-05 m
#    Detector has a mask: False
#    Detector has a dark current: False
#    detector has a flat field: False
#
# Wavelength: 6.888e-11 m
# Mask applied: user provided
# Dark current applied: False
# Flat field applied: False
# Polarization factor: 0.99
# Normalization factor: 1.0
# --> /home/myspot/data/2024_07_Rosario/Ru-CGO-ex/2024-07-27_002_Ru-CGO-ex_Activtation_ramp_000002_data_000090.dat
#       q_nm^-1             I
  2.003187e-02    0.000000e+00
  1.311609e-01    4.088670e-02
  2.422899e-01    3.786743e-02
  3.534189e-01    3.503904e-02
  4.645479e-01    3.556432e-02
  5.756770e-01    6.642833e-02
  6.868060e-01    1.306329e-02
  7.979350e-01    1.553171e-01
  9.090640e-01    5.755985e-01
  1.020193e+00    1.139853e+00
  1.131322e+00    1.384956e+00
  1.242451e+00    2.205931e+00
  1.353580e+00    2.680951e+00
  1.464709e+00    2.709466e+00
  1.575838e+00    2.962744e+00
  1.686967e+00    2.966419e+00
  1.798096e+00    2.674454e+00
  1.909225e+00    2.621888e+00
  2.020354e+00    2.641088e+00
  2.131483e+00    2.795168e+00
  2.242612e+00    2.627510e+00
  2.353741e+00    2.728032e+00
  2.464870e+00    2.682257e+00
  2.575999e+00    2.765383e+00
  2.687128e+00    2.767587e+00
  2.798257e+00    2.762449e+00
  2.909386e+00    2.794621e+00
  3.020515e+00    2.830314e+00
  3.131644e+00    2.843715e+00
  3.242773e+00    2.913240e+00
  3.353902e+00    2.884472e+00
  3.465031e+00    2.883923e+00
  3.576160e+00    2.898375e+00
  3.687289e+00    2.916552e+00
  3.798418e+00    2.866936e+00
  3.909547e+00    2.986652e+00
  4.020676e+00    2.943937e+00
  4.131806e+00    2.973490e+00
  4.242935e+00    2.998307e+00
  4.354064e+00    3.093353e+00
  4.465193e+00    3.032506e+00
  4.576322e+00    2.980981e+00
  4.687451e+00    3.014055e+00
  4.798580e+00    3.015257e+00
  4.909709e+00    3.095381e+00
  5.020838e+00    3.003720e+00
  5.131967e+00    3.101236e+00
  5.243096e+00    3.097245e+00
  5.354225e+00    3.099115e+00
  5.465354e+00    3.061768e+00
  5.576483e+00    2.961064e+00
  5.687612e+00    3.007181e+00
  5.798741e+00    2.949092e+00
  5.909870e+00    2.966839e+00
  6.020999e+00    2.869518e+00
  6.132128e+00    3.131683e+00
  6.243257e+00    2.985043e+00
  6.354386e+00    3.051414e+00
  6.465515e+00    2.955487e+00
  6.576644e+00    2.943345e+00
  6.687773e+00    2.946815e+00
  6.798902e+00    2.993699e+00
  6.910031e+00    2.984165e+00
  7.021160e+00    2.949337e+00
  7.132289e+00    2.953012e+00
  7.243418e+00    2.835037e+00
  7.354547e+00    2.934575e+00
  7.465676e+00    2.960659e+00
  7.576805e+00    2.912241e+00
  7.687934e+00    2.869004e+00
  7.799063e+00    2.861339e+00
  7.910192e+00    2.857505e+00
  8.021321e+00    2.866405e+00
  8.132450e+00    2.942287e+00
  8.243579e+00    2.928630e+00
  8.354708e+00    2.815233e+00
  8.465837e+00    2.861934e+00
  8.576966e+00    2.820673e+00
  8.688095e+00    2.816175e+00
  8.799224e+00    2.789449e+00
  8.910353e+00    2.767544e+00
  9.021482e+00    2.721501e+00
  9.132611e+00    2.812360e+00
  9.243740e+00    2.693357e+00
  9.354869e+00    2.712611e+00
  9.465998e+00    2.685909e+00
  9.577127e+00    2.701440e+00
  9.688256e+00    2.669189e+00
  9.799385e+00    2.686440e+00
  9.910514e+00    2.661915e+00
  1.002164e+01    2.629450e+00
  1.013277e+01    2.623104e+00
  1.024390e+01    2.572522e+00
  1.035503e+01    2.581440e+00
  1.046616e+01    2.553878e+00
  1.057729e+01    2.549971e+00
  1.068842e+01    2.602320e+00
  1.079955e+01    2.499653e+00
  1.091068e+01    2.504366e+00
  1.102180e+01    2.416213e+00
  1.113293e+01    2.421578e+00
  1.124406e+01    2.415673e+00
  1.135519e+01    2.455086e+00
  1.146632e+01    2.345253e+00
  1.157745e+01    2.354327e+00
  1.168858e+01    2.338573e+00
  1.179971e+01    2.331138e+00
  1.191084e+01    2.334413e+00
  1.202197e+01    2.313434e+00
  1.213309e+01    2.337079e+00
  1.224422e+01    2.298663e+00
  1.235535e+01    2.338270e+00
  1.246648e+01    2.276289e+00
  1.257761e+01    2.341577e+00
  1.268874e+01    2.478520e+00
  1.279987e+01    2.588367e+00
  1.291100e+01    3.284905e+00
  1.302213e+01    5.953450e+00
  1.313326e+01    1.476169e+01
  1.324438e+01    1.323359e+01
  1.335551e+01    4.747879e+00
  1.346664e+01    2.974951e+00
  1.357777e+01    2.459751e+00
  1.368890e+01    2.259480e+00
  1.380003e+01    2.103982e+00
  1.391116e+01    2.048521e+00
  1.402229e+01    2.058385e+00
  1.413342e+01    1.957714e+00
  1.424455e+01    1.975984e+00
  1.435568e+01    1.914933e+00
  1.446680e+01    1.896192e+00
  1.457793e+01    1.918833e+00
  1.468906e+01    1.876232e+00
  1.480019e+01    1.858185e+00
  1.491132e+01    1.977059e+00
  1.502245e+01    2.153534e+00
  1.513358e+01    3.359161e+00
  1.524471e+01    5.815052e+00
  1.535584e+01    4.264256e+00
  1.546697e+01    2.236021e+00
  1.557809e+01    1.888841e+00
  1.568922e+01    1.778906e+00
  1.580035e+01    1.621523e+00
  1.591148e+01    1.627826e+00
  1.602261e+01    1.567773e+00
  1.613374e+01    1.533319e+00
  1.624487e+01    1.532509e+00
  1.635600e+01    1.503315e+00
  1.646713e+01    1.498146e+00
  1.657826e+01    1.471819e+00
  1.668938e+01    1.451946e+00
  1.680051e+01    1.436163e+00
  1.691164e+01    1.434309e+00
  1.702277e+01    1.423262e+00
  1.713390e+01    1.412654e+00
  1.724503e+01    1.387394e+00
  1.735616e+01    1.373415e+00
  1.746729e+01    1.374546e+00
  1.757842e+01    1.354657e+00
  1.768955e+01    1.309870e+00
  1.780067e+01    1.330930e+00
  1.791180e+01    1.291978e+00
  1.802293e+01    1.270841e+00
  1.813406e+01    1.284821e+00
  1.824519e+01    1.262688e+00
  1.835632e+01    1.260730e+00
  1.846745e+01    1.233838e+00
  1.857858e+01    1.224922e+00
  1.868971e+01    1.206671e+00
  1.880084e+01    1.209088e+00
  1.891196e+01    1.194995e+00
  1.902309e+01    1.186168e+00
  1.913422e+01    1.178088e+00
  1.924535e+01    1.192825e+00
  1.935648e+01    1.203922e+00
  1.946761e+01    1.147266e+00
  1.957874e+01    1.140359e+00
  1.968987e+01    1.127379e+00
  1.980100e+01    1.130423e+00
  1.991213e+01    1.079136e+00
  2.002325e+01    1.111156e+00
  2.013438e+01    1.083902e+00
  2.024551e+01    1.092966e+00
  2.035664e+01    1.102050e+00
  2.046777e+01    1.059883e+00
  2.057890e+01    1.074777e+00
  2.069003e+01    1.049758e+00
  2.080116e+01    1.082608e+00
  2.091229e+01    1.076663e+00
  2.102342e+01    1.049014e+00
  2.113455e+01    1.106359e+00
  2.124567e+01    1.090134e+00
  2.135680e+01    1.123151e+00
  2.146793e+01    1.228849e+00
  2.157906e+01    1.426069e+00
  2.169019e+01    2.177457e+00
  2.180132e+01    5.265741e+00
  2.191245e+01    9.869584e+00
  2.202358e+01    4.579821e+00
  2.213471e+01    1.959540e+00
  2.224584e+01    1.342167e+00
  2.235696e+01    1.152709e+00
  2.246809e+01    1.050139e+00
  2.257922e+01    9.842634e-01
  2.269035e+01    9.398404e-01
  2.280148e+01    9.250820e-01
  2.291261e+01    9.061745e-01
  2.302374e+01    9.004469e-01
  2.313487e+01    8.827456e-01
  2.324600e+01    8.485551e-01
  2.335713e+01    8.500057e-01
  2.346825e+01    8.443003e-01
  2.357938e+01    8.203056e-01
  2.369051e+01    8.322121e-01
  2.380164e+01    8.130063e-01
  2.391277e+01    7.693148e-01
  2.402390e+01    7.709107e-01
  2.413503e+01    7.547415e-01
  2.424616e+01    7.923558e-01
  2.435729e+01    7.748598e-01
  2.446842e+01    7.920355e-01
  2.457954e+01    7.819653e-01
  2.469067e+01    8.002608e-01
  2.480180e+01    7.825375e-01
  2.491293e+01    7.899824e-01
  2.502406e+01    8.022047e-01
  2.513519e+01    8.100166e-01
  2.524632e+01    8.391507e-01
  2.535745e+01    8.905440e-01
  2.546858e+01    9.370308e-01
  2.557971e+01    1.078579e+00
  2.569083e+01    1.372576e+00
  2.580196e+01    2.404000e+00
  2.591309e+01    6.016898e+00
  2.602422e+01    7.211926e+00
  2.613535e+01    2.665937e+00
  2.624648e+01    1.428794e+00
  2.635761e+01    1.095332e+00
  2.646874e+01    9.618114e-01
  2.657987e+01    9.346378e-01
  2.669100e+01    9.003364e-01
  2.680212e+01    9.106002e-01
  2.691325e+01    9.224282e-01
  2.702438e+01    1.035069e+00
  2.713551e+01    1.519569e+00
  2.724664e+01    2.395361e+00
  2.735777e+01    1.468487e+00
  2.746890e+01    1.009037e+00
  2.758003e+01    8.596436e-01
  2.769116e+01    8.266091e-01
  2.780229e+01    8.160507e-01
  2.791342e+01    7.818943e-01
  2.802454e+01    7.877300e-01
  2.813567e+01    7.995389e-01
  2.824680e+01    7.701736e-01
  2.835793e+01    7.692062e-01
  2.846906e+01    7.610195e-01
  2.858019e+01    7.306963e-01
  2.869132e+01    7.703037e-01
  2.880245e+01    7.373634e-01
  2.891358e+01    7.420179e-01
  2.902471e+01    7.402910e-01
  2.913583e+01    7.371299e-01
  2.924696e+01    7.174118e-01
  2.935809e+01    7.110315e-01
  2.946922e+01    7.446046e-01
  2.958035e+01    7.208082e-01
  2.969148e+01    7.100369e-01
  2.980261e+01    7.084205e-01
  2.991374e+01    7.114168e-01
  3.002487e+01    7.132090e-01
  3.013600e+01    7.258977e-01
  3.024712e+01    7.126741e-01
  3.035825e+01    7.052347e-01
  3.046938e+01    7.090036e-01
  3.058051e+01    7.185604e-01
  3.069164e+01    7.216738e-01
  3.080277e+01    7.217618e-01
  3.091390e+01    7.296122e-01
  3.102503e+01    6.980202e-01
  3.113616e+01    7.330736e-01
  3.124729e+01    7.320822e-01
  3.135841e+01    7.157207e-01
  3.146954e+01    7.774122e-01
  3.158067e+01    7.879418e-01
  3.169180e+01    9.274911e-01
  3.180293e+01    1.287261e+00
  3.191406e+01    2.297602e+00
  3.202519e+01    1.592534e+00
  3.213632e+01    9.886432e-01
  3.224745e+01    8.018994e-01
  3.235858e+01    7.423005e-01
  3.246970e+01    7.373900e-01
  3.254908e+01    6.997581e-01

File: 2024-07-27_002_Ru-CGO-ex_Activtation_ramp_000002_data_000091.dat
# == pyFAI calibration ==
# Distance Sample to Detector: 0.4 m
# PONI: 9.750e-02, 1.135e-01 m
# Rotations: -0.000175 0.000000 -0.000000 rad
#
# == Fit2d calibration ==
# Distance Sample-beamCenter: 400.000 mm
# Center: x=1514.000, y=1300.000 pix
# Tilt: 0.010 deg  TiltPlanRot: 0.010 deg
#
# Detector Detector	 Spline= None	 PixelSize= 7.500e-05, 7.500e-05 m
#    Detector has a mask: False
#    Detector has a dark current: False
#    detector has a flat field: False
#
# Wavelength: 6.888e-11 m
# Mask applied: user provided
# Dark current applied: False
# Flat field applied: False
# Polarization factor: 0.99
# Normalization factor: 1.0
# --> /home/myspot/data/2024_07_Rosario/Ru-CGO-ex/2024-07-27_002_Ru-CGO-ex_Activtation_ramp_000002_data_000091.dat
#       q_nm^-1             I
  2.003187e-02    0.000000e+00
  1.311609e-01    5.237543e-02
  2.422899e-01    5.581939e-03
  3.534189e-01    2.855854e-02
  4.645479e-01    3.413008e-02
  5.756770e-01    3.281309e-02
  6.868060e-01    2.325657e-02
  7.979350e-01    1.712815e-01
  9.090640e-01    5.117890e-01
  1.020193e+00    1.179260e+00
  1.131322e+00    1.375768e+00
  1.242451e+00    2.193176e+00
  1.353580e+00    2.648374e+00
  1.464709e+00    2.775284e+00
  1.575838e+00    2.822246e+00
  1.686967e+00    2.824634e+00
  1.798096e+00    2.732326e+00
  1.909225e+00    2.782342e+00
  2.020354e+00    2.724485e+00
  2.131483e+00    2.716705e+00
  2.242612e+00    2.681648e+00
  2.353741e+00    2.711721e+00
  2.464870e+00    2.701021e+00
  2.575999e+00    2.622444e+00
  2.687128e+00    2.766090e+00
  2.798257e+00    2.753328e+00
  2.909386e+00    2.735054e+00
  3.020515e+00    2.938148e+00
  3.131644e+00    2.843350e+00
  3.242773e+00    2.784850e+00
  3.353902e+00    2.822007e+00
  3.465031e+00    2.877853e+00
  3.576160e+00    2.824946e+00
  3.687289e+00    2.910509e+00
  3.798418e+00    2.873833e+00
  3.909547e+00    2.897712e+00
  4.020676e+00    2.948907e+00
  4.131806e+00    2.967038e+00
  4.242935e+00    3.053457e+00
  4.354064e+00    2.974847e+00
  4.465193e+00    2.961337e+00
  4.576322e+00    3.042314e+00
  4.687451e+00    3.014531e+00
  4.798580e+00    3.068873e+00
  4.909709e+00    3.130967e+00
  5.020838e+00    3.083273e+00
  5.131967e+00    3.052598e+00
  5.243096e+00    3.112411e+00
  5.354225e+00    3.105769e+00
  5.465354e+00    3.152526e+00
  5.576483e+00    3.000934e+00
  5.687612e+00    3.047097e+00
  5.798741e+00    3.035814e+00
  5.909870e+00    3.002328e+00
  6.020999e+00    2.926829e+00
  6.132128e+00    3.005481e+00
  6.243257e+00    3.002320e+00
  6.354386e+00    3.004626e+00
  6.465515e+00    3.007814e+00
  6.576644e+00    2.960019e+00
  6.687773e+00    2.996235e+00
  6.798902e+00    2.987007e+00
  6.910031e+00    2.948654e+00
  7.021160e+00    2.942084e+00
  7.132289e+00    2.968682e+00
  7.243418e+00    2.898600e+00
  7.354547e+00    2.901013e+00
  7.465676e+00    2.927114e+00
  7.576805e+00    2.907487e+00
  7.687934e+00    2.918208e+00
  7.799063e+00    2.898899e+00
  7.910192e+00    2.867390e+00
  8.021321e+00    2.860959e+00
  8.132450e+00    2.886923e+00
  8.243579e+00    2.948708e+00
  8.354708e+00    2.833874e+00
  8.465837e+00    2.867025e+00
  8.576966e+00    2.876376e+00
  8.688095e+00    2.799831e+00
  8.799224e+00    2.831108e+00
  8.910353e+00    2.836287e+00
  9.021482e+00    2.790272e+00
  9.132611e+00    2.777413e+00
  9.243740e+00    2.716218e+00
  9.354869e+00    2.761044e+00
  9.465998e+00    2.723055e+00
  9.577127e+00    2.688837e+00
  9.688256e+00    2.725530e+00
  9.799385e+00    2.682018e+00
  9.910514e+00    2.618278e+00
  1.002164e+01    2.636534e+00
  1.013277e+01    2.616025e+00
  1.024390e+01    2.587532e+00
  1.035503e+01    2.554881e+00
  1.046616e+01    2.607206e+00
  1.057729e+01    2.535861e+00
  1.068842e+01    2.473440e+00
  1.079955e+01    2.531724e+00
  1.091068e+01    2.469250e+00
  1.102180e+01    2.413049e+00
  1.113293e+01    2.436109e+00
  1.124406e+01    2.441444e+00
  1.135519e+01    2.429878e+00
  1.146632e+01    2.383628e+00
  1.157745e+01    2.363413e+00
  1.168858e+01    2.329511e+00
  1.179971e+01    2.288348e+00
  1.191084e+01    2.290080e+00
  1.202197e+01    2.305900e+00
  1.213309e+01    2.271792e+00
  1.224422e+01    2.316765e+00
  1.235535e+01    2.310125e+00
  1.246648e+01    2.326344e+00
  1.257761e+01    2.332818e+00
  1.268874e+01    2.401165e+00
  1.279987e+01    2.578529e+00
  1.291100e+01    3.246120e+00
  1.302213e+01    6.016112e+00
  1.313326e+01    1.460950e+01
  1.324438e+01    1.316725e+01
  1.335551e+01    4.631995e+00
  1.346664e+01    2.941493e+00
  1.357777e+01    2.428426e+00
  1.368890e+01    2.253244e+00
  1.380003e+01    2.147899e+00
  1.391116e+01    2.047052e+00
  1.402229e+01    2.019712e+00
  1.413342e+01    1.951655e+00
  1.424455e+01    1.957014e+00
  1.435568e+01    1.877430e+00
  1.446680e+01    1.911611e+00
  1.457793e+01    1.914189e+00
  1.468906e+01    1.878999e+00
  1.480019e+01    1.862828e+00
  1.491132e+01    1.914220e+00
  1.502245e+01    2.204353e+00
  1.513358e+01    3.299755e+00
  1.524471e+01    5.786597e+00
  1.535584e+01    4.160991e+00
  1.546697e+01    2.320541e+00
  1.557809e+01    1.863517e+00
  1.568922e+01    1.720723e+00
  1.580035e+01    1.666439e+00
  1.591148e+01    1.611242e+00
  1.602261e+01    1.588952e+00
  1.613374e+01    1.566931e+00
  1.624487e+01    1.557432e+00
  1.635600e+01    1.550066e+00
  1.646713e+01    1.503296e+00
  1.657826e+01    1.463002e+00
  1.668938e+01    1.430954e+00
  1.680051e+01    1.444386e+00
  1.691164e+01    1.417170e+00
  1.702277e+01    1.411911e+00
  1.713390e+01    1.395622e+00
  1.724503e+01    1.370694e+00
  1.735616e+01    1.360790e+00
  1.746729e+01    1.352677e+00
  1.757842e+01    1.323082e+00
  1.768955e+01    1.293440e+00
  1.780067e+01    1.329173e+00
  1.791180e+01    1.280567e+00
  1.802293e+01    1.261659e+00
  1.813406e+01    1.273519e+00
  1.824519e+01    1.256527e+00
  1.835632e+01    1.245334e+00
  1.846745e+01    1.237607e+00
  1.857858e+01    1.226792e+00
  1.868971e+01    1.200132e+00
  1.880084e+01    1.203808e+00
  1.891196e+01    1.208113e+00
  1.902309e+01    1.163350e+00
  1.913422e+01    1.181878e+00
  1.924535e+01    1.155069e+00
  1.935648e+01    1.152659e+00
  1.946761e+01    1.129302e+00
  1.957874e+01    1.161138e+00
  1.968987e+01    1.137113e+00
  1.980100e+01    1.127564e+00
  1.991213e+01    1.120488e+00
  2.002325e+01    1.119851e+00
  2.013438e+01    1.104740e+00
  2.024551e+01    1.094194e+00
  2.035664e+01    1.064516e+00
  2.046777e+01    1.067975e+00
  2.057890e+01    1.065615e+00
  2.069003e+01    1.036105e+00
  2.080116e+01    1.049068e+00
  2.091229e+01    1.069926e+00
  2.102342e+01    1.080462e+00
  2.113455e+01    1.064376e+00
  2.124567e+01    1.104212e+00
  2.135680e+01    1.122925e+00
  2.146793e+01    1.215480e+00
  2.157906e+01    1.469242e+00
  2.169019e+01    2.200477e+00
  2.180132e+01    5.230208e+00
  2.191245e+01    9.877680e+00
  2.202358e+01    4.516786e+00
  2.213471e+01    1.931935e+00
  2.224584e+01    1.328278e+00
  2.235696e+01    1.121314e+00
  2.246809e+01    1.053167e+00
  2.257922e+01    9.983559e-01
  2.269035e+01    9.474969e-01
  2.280148e+01    9.234045e-01
  2.291261e+01    9.040514e-01
  2.302374e+01    8.666280e-01
  2.313487e+01    8.933914e-01
  2.324600e+01    8.673722e-01
  2.335713e+01    8.649539e-01
  2.346825e+01    8.265236e-01
  2.357938e+01    8.294728e-01
  2.369051e+01    8.019081e-01
  2.380164e+01    8.040938e-01
  2.391277e+01    7.882664e-01
  2.402390e+01    7.891999e-01
  2.413503e+01    7.693634e-01
  2.424616e+01    7.791507e-01
  2.435729e+01    7.730873e-01
  2.446842e+01    7.935497e-01
  2.457954e+01    7.689555e-01
  2.469067e+01    8.028788e-01
  2.480180e+01    7.767077e-01
  2.491293e+01    8.000343e-01
  2.502406e+01    7.664917e-01
  2.513519e+01    7.942262e-01
  2.524632e+01    8.448467e-01
  2.535745e+01    8.651445e-01
  2.546858e+01    9.218162e-01
  2.557971e+01    1.056025e+00
  2.569083e+01    1.390713e+00
  2.580196e+01    2.439941e+00
  2.591309e+01    6.090257e+00
  2.602422e+01    7.167850e+00
  2.613535e+01    2.668844e+00
  2.624648e+01    1.429281e+00
  2.635761e+01    1.066379e+00
  2.646874e+01    9.657628e-01
  2.657987e+01    8.954473e-01
  2.669100e+01    8.796288e-01
  2.680212e+01    8.932103e-01
  2.691325e+01    9.319285e-01
  2.702438e+01    1.018025e+00
  2.713551e+01    1.568610e+00
  2.724664e+01    2.373889e+00
  2.735777e+01    1.444576e+00
  2.746890e+01    9.700414e-01
  2.758003e+01    8.962007e-01
  2.769116e+01    8.499517e-01
  2.780229e+01    8.049217e-01
  2.791342e+01    7.964397e-01
  2.802454e+01    7.780591e-01
  2.813567e+01    7.974492e-01
  2.824680e+01    7.796252e-01
  2.835793e+01    7.537705e-01
  2.846906e+01    7.405677e-01
  2.858019e+01    7.538877e-01
  2.869132e+01    7.577516e-01
  2.880245e+01    7.465372e-01
  2.891358e+01    7.592441e-01
  2.902471e+01    7.444176e-01
  2.913583e+01    7.343639e-01
  2.924696e+01    7.091746e-01
  2.935809e+01    7.214048e-01
  2.946922e+01    7.013270e-01
  2.958035e+01    7.186542e-01
  2.969148e+01    7.362463e-01
  2.980261e+01    7.112799e-01
  2.991374e+01    6.996865e-01
  3.002487e+01    7.180521e-01
  3.013600e+01    7.049369e-01
  3.024712e+01    7.291220e-01
  3.035825e+01    7.044312e-01
  3.046938e+01    6.878924e-01
  3.058051e+01    7.310884e-01
  3.069164e+01    7.279856e-01
  3.080277e+01    6.909454e-01
  3.091390e+01    6.921272e-01
  3.102503e+01    7.116925e-01
  3.113616e+01    7.125072e-01
  3.124729e+01    7.055920e-01
  3.135841e+01    7.281799e-01
  3.146954e+01    7.411395e-01
  3.158067e+01    8.036394e-01
  3.169180e+01    9.035386e-01
  3.180293e+01    1.303077e+00
  3.191406e+01    2.306986e+00
  3.202519e+01    1.595604e+00
  3.213632e+01    9.759899e-01
  3.224745e+01    8.112525e-01
  3.235858e+01    7.301462e-01
  3.246970e+01    7.405865e-01
  3.254908e+01    7.261955e-01