Folder: myspot_2024_07/XRD (part 9)

File: 2024-07-27_002_Ru-CGO-ex_Activtation_ramp_000002_data_000034.dat
# == pyFAI calibration ==
# Distance Sample to Detector: 0.4 m
# PONI: 9.750e-02, 1.135e-01 m
# Rotations: -0.000175 0.000000 -0.000000 rad
#
# == Fit2d calibration ==
# Distance Sample-beamCenter: 400.000 mm
# Center: x=1514.000, y=1300.000 pix
# Tilt: 0.010 deg  TiltPlanRot: 0.010 deg
#
# Detector Detector	 Spline= None	 PixelSize= 7.500e-05, 7.500e-05 m
#    Detector has a mask: False
#    Detector has a dark current: False
#    detector has a flat field: False
#
# Wavelength: 6.888e-11 m
# Mask applied: user provided
# Dark current applied: False
# Flat field applied: False
# Polarization factor: 0.99
# Normalization factor: 1.0
# --> /home/myspot/data/2024_07_Rosario/Ru-CGO-ex/2024-07-27_002_Ru-CGO-ex_Activtation_ramp_000002_data_000034.dat
#       q_nm^-1             I
  2.003187e-02    1.424646e-01
  1.311609e-01    4.102718e-04
  2.422899e-01    3.021103e-02
  3.534189e-01    4.276874e-02
  4.645479e-01    6.324509e-02
  5.756770e-01    1.916904e-02
  6.868060e-01    3.976770e-02
  7.979350e-01    1.471612e-01
  9.090640e-01    5.987049e-01
  1.020193e+00    1.102311e+00
  1.131322e+00    1.474188e+00
  1.242451e+00    2.344154e+00
  1.353580e+00    2.746179e+00
  1.464709e+00    2.838144e+00
  1.575838e+00    3.000155e+00
  1.686967e+00    2.888964e+00
  1.798096e+00    2.938329e+00
  1.909225e+00    2.877852e+00
  2.020354e+00    2.902839e+00
  2.131483e+00    2.807703e+00
  2.242612e+00    2.812742e+00
  2.353741e+00    2.853968e+00
  2.464870e+00    2.815093e+00
  2.575999e+00    2.783793e+00
  2.687128e+00    2.800150e+00
  2.798257e+00    2.778896e+00
  2.909386e+00    2.923160e+00
  3.020515e+00    2.831704e+00
  3.131644e+00    2.963444e+00
  3.242773e+00    2.958818e+00
  3.353902e+00    2.905429e+00
  3.465031e+00    2.965626e+00
  3.576160e+00    2.959936e+00
  3.687289e+00    3.076605e+00
  3.798418e+00    3.103835e+00
  3.909547e+00    3.038115e+00
  4.020676e+00    2.981032e+00
  4.131806e+00    2.980993e+00
  4.242935e+00    3.032799e+00
  4.354064e+00    3.091113e+00
  4.465193e+00    3.078183e+00
  4.576322e+00    2.975504e+00
  4.687451e+00    3.133003e+00
  4.798580e+00    3.079104e+00
  4.909709e+00    3.186299e+00
  5.020838e+00    3.207276e+00
  5.131967e+00    3.202986e+00
  5.243096e+00    3.118270e+00
  5.354225e+00    3.184224e+00
  5.465354e+00    3.125269e+00
  5.576483e+00    3.006854e+00
  5.687612e+00    3.069599e+00
  5.798741e+00    2.990431e+00
  5.909870e+00    3.050803e+00
  6.020999e+00    2.967562e+00
  6.132128e+00    3.107980e+00
  6.243257e+00    3.015075e+00
  6.354386e+00    3.076729e+00
  6.465515e+00    3.046267e+00
  6.576644e+00    3.054030e+00
  6.687773e+00    3.029974e+00
  6.798902e+00    3.031019e+00
  6.910031e+00    3.039742e+00
  7.021160e+00    3.039749e+00
  7.132289e+00    2.998865e+00
  7.243418e+00    3.022579e+00
  7.354547e+00    2.972270e+00
  7.465676e+00    2.989938e+00
  7.576805e+00    2.972245e+00
  7.687934e+00    2.924754e+00
  7.799063e+00    2.890118e+00
  7.910192e+00    2.953847e+00
  8.021321e+00    2.913273e+00
  8.132450e+00    3.034436e+00
  8.243579e+00    2.895639e+00
  8.354708e+00    2.906764e+00
  8.465837e+00    2.887370e+00
  8.576966e+00    2.950042e+00
  8.688095e+00    2.843753e+00
  8.799224e+00    2.800391e+00
  8.910353e+00    2.902480e+00
  9.021482e+00    2.838670e+00
  9.132611e+00    2.783217e+00
  9.243740e+00    2.809378e+00
  9.354869e+00    2.809063e+00
  9.465998e+00    2.790141e+00
  9.577127e+00    2.776493e+00
  9.688256e+00    2.791909e+00
  9.799385e+00    2.724317e+00
  9.910514e+00    2.691043e+00
  1.002164e+01    2.720391e+00
  1.013277e+01    2.666910e+00
  1.024390e+01    2.640840e+00
  1.035503e+01    2.654524e+00
  1.046616e+01    2.612595e+00
  1.057729e+01    2.598805e+00
  1.068842e+01    2.558133e+00
  1.079955e+01    2.487660e+00
  1.091068e+01    2.521991e+00
  1.102180e+01    2.476001e+00
  1.113293e+01    2.469740e+00
  1.124406e+01    2.440142e+00
  1.135519e+01    2.435670e+00
  1.146632e+01    2.378390e+00
  1.157745e+01    2.384694e+00
  1.168858e+01    2.421124e+00
  1.179971e+01    2.322388e+00
  1.191084e+01    2.374905e+00
  1.202197e+01    2.384387e+00
  1.213309e+01    2.333973e+00
  1.224422e+01    2.350224e+00
  1.235535e+01    2.334580e+00
  1.246648e+01    2.362732e+00
  1.257761e+01    2.433296e+00
  1.268874e+01    2.528126e+00
  1.279987e+01    2.683488e+00
  1.291100e+01    3.280287e+00
  1.302213e+01    5.892703e+00
  1.313326e+01    1.519284e+01
  1.324438e+01    1.580374e+01
  1.335551e+01    5.316000e+00
  1.346664e+01    3.144636e+00
  1.357777e+01    2.596754e+00
  1.368890e+01    2.367505e+00
  1.380003e+01    2.225924e+00
  1.391116e+01    2.107016e+00
  1.402229e+01    2.100945e+00
  1.413342e+01    2.052057e+00
  1.424455e+01    1.997692e+00
  1.435568e+01    1.964529e+00
  1.446680e+01    1.937472e+00
  1.457793e+01    1.914894e+00
  1.468906e+01    1.943033e+00
  1.480019e+01    1.930537e+00
  1.491132e+01    1.997187e+00
  1.502245e+01    2.215155e+00
  1.513358e+01    3.271079e+00
  1.524471e+01    6.078251e+00
  1.535584e+01    4.865064e+00
  1.546697e+01    2.501484e+00
  1.557809e+01    1.982873e+00
  1.568922e+01    1.789593e+00
  1.580035e+01    1.681228e+00
  1.591148e+01    1.667270e+00
  1.602261e+01    1.633264e+00
  1.613374e+01    1.586160e+00
  1.624487e+01    1.563698e+00
  1.635600e+01    1.573101e+00
  1.646713e+01    1.523983e+00
  1.657826e+01    1.536650e+00
  1.668938e+01    1.503348e+00
  1.680051e+01    1.514963e+00
  1.691164e+01    1.474001e+00
  1.702277e+01    1.420163e+00
  1.713390e+01    1.453859e+00
  1.724503e+01    1.407951e+00
  1.735616e+01    1.382204e+00
  1.746729e+01    1.402193e+00
  1.757842e+01    1.371010e+00
  1.768955e+01    1.350234e+00
  1.780067e+01    1.373009e+00
  1.791180e+01    1.301539e+00
  1.802293e+01    1.332193e+00
  1.813406e+01    1.315938e+00
  1.824519e+01    1.265468e+00
  1.835632e+01    1.280638e+00
  1.846745e+01    1.283828e+00
  1.857858e+01    1.260222e+00
  1.868971e+01    1.238564e+00
  1.880084e+01    1.249329e+00
  1.891196e+01    1.229878e+00
  1.902309e+01    1.226420e+00
  1.913422e+01    1.208710e+00
  1.924535e+01    1.190961e+00
  1.935648e+01    1.155460e+00
  1.946761e+01    1.192545e+00
  1.957874e+01    1.126218e+00
  1.968987e+01    1.155612e+00
  1.980100e+01    1.152103e+00
  1.991213e+01    1.134776e+00
  2.002325e+01    1.143223e+00
  2.013438e+01    1.122495e+00
  2.024551e+01    1.110643e+00
  2.035664e+01    1.137669e+00
  2.046777e+01    1.115034e+00
  2.057890e+01    1.084066e+00
  2.069003e+01    1.107823e+00
  2.080116e+01    1.077437e+00
  2.091229e+01    1.115042e+00
  2.102342e+01    1.099619e+00
  2.113455e+01    1.110746e+00
  2.124567e+01    1.128183e+00
  2.135680e+01    1.207077e+00
  2.146793e+01    1.227234e+00
  2.157906e+01    1.453807e+00
  2.169019e+01    2.112345e+00
  2.180132e+01    4.968094e+00
  2.191245e+01    1.054772e+01
  2.202358e+01    5.749921e+00
  2.213471e+01    2.228289e+00
  2.224584e+01    1.474646e+00
  2.235696e+01    1.228423e+00
  2.246809e+01    1.089512e+00
  2.257922e+01    1.021580e+00
  2.269035e+01    9.882752e-01
  2.280148e+01    9.516869e-01
  2.291261e+01    9.333372e-01
  2.302374e+01    8.935290e-01
  2.313487e+01    8.853331e-01
  2.324600e+01    8.855415e-01
  2.335713e+01    8.795091e-01
  2.346825e+01    8.526255e-01
  2.357938e+01    8.549517e-01
  2.369051e+01    8.680475e-01
  2.380164e+01    8.268612e-01
  2.391277e+01    7.996348e-01
  2.402390e+01    8.216716e-01
  2.413503e+01    7.957558e-01
  2.424616e+01    7.960765e-01
  2.435729e+01    7.943938e-01
  2.446842e+01    7.987975e-01
  2.457954e+01    8.228717e-01
  2.469067e+01    8.149908e-01
  2.480180e+01    8.210924e-01
  2.491293e+01    8.022200e-01
  2.502406e+01    8.278992e-01
  2.513519e+01    8.223308e-01
  2.524632e+01    8.625737e-01
  2.535745e+01    9.088728e-01
  2.546858e+01    9.570213e-01
  2.557971e+01    1.086528e+00
  2.569083e+01    1.347297e+00
  2.580196e+01    2.226777e+00
  2.591309e+01    5.714915e+00
  2.602422e+01    8.673277e+00
  2.613535e+01    3.406864e+00
  2.624648e+01    1.625560e+00
  2.635761e+01    1.183048e+00
  2.646874e+01    1.045478e+00
  2.657987e+01    9.708656e-01
  2.669100e+01    8.995382e-01
  2.680212e+01    9.181613e-01
  2.691325e+01    9.601055e-01
  2.702438e+01    1.050975e+00
  2.713551e+01    1.489455e+00
  2.724664e+01    2.574841e+00
  2.735777e+01    1.747718e+00
  2.746890e+01    1.084702e+00
  2.758003e+01    9.223657e-01
  2.769116e+01    8.825912e-01
  2.780229e+01    8.428580e-01
  2.791342e+01    8.125162e-01
  2.802454e+01    8.059648e-01
  2.813567e+01    7.861589e-01
  2.824680e+01    7.945059e-01
  2.835793e+01    7.887518e-01
  2.846906e+01    7.709113e-01
  2.858019e+01    7.867067e-01
  2.869132e+01    7.617812e-01
  2.880245e+01    7.527251e-01
  2.891358e+01    7.642184e-01
  2.902471e+01    7.394285e-01
  2.913583e+01    7.427112e-01
  2.924696e+01    7.708994e-01
  2.935809e+01    7.331958e-01
  2.946922e+01    7.319926e-01
  2.958035e+01    7.419626e-01
  2.969148e+01    7.522176e-01
  2.980261e+01    7.493413e-01
  2.991374e+01    7.242872e-01
  3.002487e+01    7.366084e-01
  3.013600e+01    7.229747e-01
  3.024712e+01    7.218061e-01
  3.035825e+01    7.261967e-01
  3.046938e+01    7.212370e-01
  3.058051e+01    7.271768e-01
  3.069164e+01    7.179322e-01
  3.080277e+01    7.373816e-01
  3.091390e+01    7.177830e-01
  3.102503e+01    7.082701e-01
  3.113616e+01    7.452543e-01
  3.124729e+01    7.494587e-01
  3.135841e+01    7.477389e-01
  3.146954e+01    7.671039e-01
  3.158067e+01    7.894121e-01
  3.169180e+01    8.965564e-01
  3.180293e+01    1.217172e+00
  3.191406e+01    2.242043e+00
  3.202519e+01    2.075376e+00
  3.213632e+01    1.086519e+00
  3.224745e+01    8.517206e-01
  3.235858e+01    7.786971e-01
  3.246970e+01    7.696271e-01
  3.254908e+01    7.463437e-01

File: 2024-07-27_002_Ru-CGO-ex_Activtation_ramp_000002_data_000036.dat
# == pyFAI calibration ==
# Distance Sample to Detector: 0.4 m
# PONI: 9.750e-02, 1.135e-01 m
# Rotations: -0.000175 0.000000 -0.000000 rad
#
# == Fit2d calibration ==
# Distance Sample-beamCenter: 400.000 mm
# Center: x=1514.000, y=1300.000 pix
# Tilt: 0.010 deg  TiltPlanRot: 0.010 deg
#
# Detector Detector	 Spline= None	 PixelSize= 7.500e-05, 7.500e-05 m
#    Detector has a mask: False
#    Detector has a dark current: False
#    detector has a flat field: False
#
# Wavelength: 6.888e-11 m
# Mask applied: user provided
# Dark current applied: False
# Flat field applied: False
# Polarization factor: 0.99
# Normalization factor: 1.0
# --> /home/myspot/data/2024_07_Rosario/Ru-CGO-ex/2024-07-27_002_Ru-CGO-ex_Activtation_ramp_000002_data_000036.dat
#       q_nm^-1             I
  2.003187e-02    2.227120e-02
  1.311609e-01    6.581067e-02
  2.422899e-01    5.094741e-02
  3.534189e-01    3.326982e-02
  4.645479e-01    2.659130e-02
  5.756770e-01    4.697309e-02
  6.868060e-01    5.395314e-02
  7.979350e-01    1.968742e-01
  9.090640e-01    6.316947e-01
  1.020193e+00    1.129411e+00
  1.131322e+00    1.524587e+00
  1.242451e+00    2.291034e+00
  1.353580e+00    2.541770e+00
  1.464709e+00    2.783479e+00
  1.575838e+00    3.115567e+00
  1.686967e+00    2.880918e+00
  1.798096e+00    2.989118e+00
  1.909225e+00    2.903177e+00
  2.020354e+00    2.863853e+00
  2.131483e+00    2.879853e+00
  2.242612e+00    2.926256e+00
  2.353741e+00    2.775192e+00
  2.464870e+00    2.819592e+00
  2.575999e+00    2.810627e+00
  2.687128e+00    2.791711e+00
  2.798257e+00    2.861299e+00
  2.909386e+00    2.973942e+00
  3.020515e+00    2.890464e+00
  3.131644e+00    2.987555e+00
  3.242773e+00    2.968925e+00
  3.353902e+00    3.035404e+00
  3.465031e+00    3.007570e+00
  3.576160e+00    3.007918e+00
  3.687289e+00    3.053028e+00
  3.798418e+00    3.072003e+00
  3.909547e+00    3.085717e+00
  4.020676e+00    3.021230e+00
  4.131806e+00    3.045871e+00
  4.242935e+00    3.048659e+00
  4.354064e+00    3.036780e+00
  4.465193e+00    3.043182e+00
  4.576322e+00    2.958121e+00
  4.687451e+00    3.084550e+00
  4.798580e+00    3.114052e+00
  4.909709e+00    3.083704e+00
  5.020838e+00    3.168588e+00
  5.131967e+00    3.114897e+00
  5.243096e+00    3.070517e+00
  5.354225e+00    3.211884e+00
  5.465354e+00    3.119195e+00
  5.576483e+00    3.145985e+00
  5.687612e+00    3.084779e+00
  5.798741e+00    3.006787e+00
  5.909870e+00    3.033944e+00
  6.020999e+00    3.032849e+00
  6.132128e+00    3.051594e+00
  6.243257e+00    3.137470e+00
  6.354386e+00    3.022797e+00
  6.465515e+00    3.063852e+00
  6.576644e+00    3.055034e+00
  6.687773e+00    3.124081e+00
  6.798902e+00    3.011770e+00
  6.910031e+00    3.027323e+00
  7.021160e+00    3.006073e+00
  7.132289e+00    3.001593e+00
  7.243418e+00    3.051193e+00
  7.354547e+00    2.985924e+00
  7.465676e+00    2.989996e+00
  7.576805e+00    3.031443e+00
  7.687934e+00    3.045829e+00
  7.799063e+00    2.964819e+00
  7.910192e+00    2.918488e+00
  8.021321e+00    2.964776e+00
  8.132450e+00    2.950959e+00
  8.243579e+00    2.969201e+00
  8.354708e+00    2.914952e+00
  8.465837e+00    2.851476e+00
  8.576966e+00    2.876150e+00
  8.688095e+00    2.824896e+00
  8.799224e+00    2.885857e+00
  8.910353e+00    2.845893e+00
  9.021482e+00    2.798351e+00
  9.132611e+00    2.731232e+00
  9.243740e+00    2.810118e+00
  9.354869e+00    2.770604e+00
  9.465998e+00    2.783849e+00
  9.577127e+00    2.731558e+00
  9.688256e+00    2.775592e+00
  9.799385e+00    2.719862e+00
  9.910514e+00    2.681418e+00
  1.002164e+01    2.689042e+00
  1.013277e+01    2.675181e+00
  1.024390e+01    2.650406e+00
  1.035503e+01    2.655799e+00
  1.046616e+01    2.591137e+00
  1.057729e+01    2.580351e+00
  1.068842e+01    2.588672e+00
  1.079955e+01    2.541221e+00
  1.091068e+01    2.542845e+00
  1.102180e+01    2.493133e+00
  1.113293e+01    2.482259e+00
  1.124406e+01    2.461619e+00
  1.135519e+01    2.440029e+00
  1.146632e+01    2.426176e+00
  1.157745e+01    2.412102e+00
  1.168858e+01    2.385661e+00
  1.179971e+01    2.383746e+00
  1.191084e+01    2.354258e+00
  1.202197e+01    2.368167e+00
  1.213309e+01    2.330108e+00
  1.224422e+01    2.352472e+00
  1.235535e+01    2.335875e+00
  1.246648e+01    2.373625e+00
  1.257761e+01    2.377433e+00
  1.268874e+01    2.491711e+00
  1.279987e+01    2.687164e+00
  1.291100e+01    3.324269e+00
  1.302213e+01    5.932491e+00
  1.313326e+01    1.495724e+01
  1.324438e+01    1.578991e+01
  1.335551e+01    5.297276e+00
  1.346664e+01    3.152819e+00
  1.357777e+01    2.524499e+00
  1.368890e+01    2.328369e+00
  1.380003e+01    2.198006e+00
  1.391116e+01    2.106367e+00
  1.402229e+01    2.093772e+00
  1.413342e+01    2.000010e+00
  1.424455e+01    2.019878e+00
  1.435568e+01    1.943308e+00
  1.446680e+01    1.961621e+00
  1.457793e+01    1.895670e+00
  1.468906e+01    1.928005e+00
  1.480019e+01    1.909434e+00
  1.491132e+01    1.967905e+00
  1.502245e+01    2.215439e+00
  1.513358e+01    3.276453e+00
  1.524471e+01    5.957935e+00
  1.535584e+01    4.818345e+00
  1.546697e+01    2.445800e+00
  1.557809e+01    1.982027e+00
  1.568922e+01    1.808245e+00
  1.580035e+01    1.737058e+00
  1.591148e+01    1.692340e+00
  1.602261e+01    1.601832e+00
  1.613374e+01    1.592384e+00
  1.624487e+01    1.615482e+00
  1.635600e+01    1.557249e+00
  1.646713e+01    1.544575e+00
  1.657826e+01    1.517306e+00
  1.668938e+01    1.478193e+00
  1.680051e+01    1.471535e+00
  1.691164e+01    1.460838e+00
  1.702277e+01    1.465524e+00
  1.713390e+01    1.432301e+00
  1.724503e+01    1.396624e+00
  1.735616e+01    1.429668e+00
  1.746729e+01    1.417817e+00
  1.757842e+01    1.367203e+00
  1.768955e+01    1.353488e+00
  1.780067e+01    1.375559e+00
  1.791180e+01    1.330358e+00
  1.802293e+01    1.307557e+00
  1.813406e+01    1.284980e+00
  1.824519e+01    1.273250e+00
  1.835632e+01    1.261222e+00
  1.846745e+01    1.282225e+00
  1.857858e+01    1.254953e+00
  1.868971e+01    1.253353e+00
  1.880084e+01    1.218224e+00
  1.891196e+01    1.215348e+00
  1.902309e+01    1.214772e+00
  1.913422e+01    1.204772e+00
  1.924535e+01    1.192139e+00
  1.935648e+01    1.156028e+00
  1.946761e+01    1.184063e+00
  1.957874e+01    1.175255e+00
  1.968987e+01    1.158616e+00
  1.980100e+01    1.150086e+00
  1.991213e+01    1.134843e+00
  2.002325e+01    1.140551e+00
  2.013438e+01    1.114573e+00
  2.024551e+01    1.107694e+00
  2.035664e+01    1.131716e+00
  2.046777e+01    1.116900e+00
  2.057890e+01    1.125012e+00
  2.069003e+01    1.099686e+00
  2.080116e+01    1.075651e+00
  2.091229e+01    1.097530e+00
  2.102342e+01    1.067782e+00
  2.113455e+01    1.105899e+00
  2.124567e+01    1.133425e+00
  2.135680e+01    1.160207e+00
  2.146793e+01    1.241676e+00
  2.157906e+01    1.447496e+00
  2.169019e+01    2.147137e+00
  2.180132e+01    4.964848e+00
  2.191245e+01    1.056900e+01
  2.202358e+01    5.757796e+00
  2.213471e+01    2.276955e+00
  2.224584e+01    1.424717e+00
  2.235696e+01    1.190043e+00
  2.246809e+01    1.093855e+00
  2.257922e+01    1.038730e+00
  2.269035e+01    9.844266e-01
  2.280148e+01    9.457768e-01
  2.291261e+01    9.480700e-01
  2.302374e+01    9.189157e-01
  2.313487e+01    9.140666e-01
  2.324600e+01    8.832842e-01
  2.335713e+01    8.678053e-01
  2.346825e+01    8.651573e-01
  2.357938e+01    8.496786e-01
  2.369051e+01    8.400626e-01
  2.380164e+01    8.144565e-01
  2.391277e+01    8.356597e-01
  2.402390e+01    8.205922e-01
  2.413503e+01    7.941968e-01
  2.424616e+01    7.836071e-01
  2.435729e+01    8.077185e-01
  2.446842e+01    8.050571e-01
  2.457954e+01    8.124366e-01
  2.469067e+01    7.950379e-01
  2.480180e+01    8.003357e-01
  2.491293e+01    8.091672e-01
  2.502406e+01    8.161549e-01
  2.513519e+01    8.358330e-01
  2.524632e+01    8.897498e-01
  2.535745e+01    8.888299e-01
  2.546858e+01    9.621114e-01
  2.557971e+01    1.073839e+00
  2.569083e+01    1.331728e+00
  2.580196e+01    2.233988e+00
  2.591309e+01    5.659050e+00
  2.602422e+01    8.657869e+00
  2.613535e+01    3.389921e+00
  2.624648e+01    1.612883e+00
  2.635761e+01    1.180414e+00
  2.646874e+01    1.000881e+00
  2.657987e+01    9.840047e-01
  2.669100e+01    9.288270e-01
  2.680212e+01    9.173179e-01
  2.691325e+01    9.378972e-01
  2.702438e+01    1.022933e+00
  2.713551e+01    1.476121e+00
  2.724664e+01    2.522353e+00
  2.735777e+01    1.708317e+00
  2.746890e+01    1.079040e+00
  2.758003e+01    9.319990e-01
  2.769116e+01    8.811027e-01
  2.780229e+01    8.351174e-01
  2.791342e+01    8.232353e-01
  2.802454e+01    8.217788e-01
  2.813567e+01    7.978392e-01
  2.824680e+01    7.898654e-01
  2.835793e+01    7.886675e-01
  2.846906e+01    7.787560e-01
  2.858019e+01    7.860819e-01
  2.869132e+01    7.527253e-01
  2.880245e+01    7.781137e-01
  2.891358e+01    7.560457e-01
  2.902471e+01    7.434921e-01
  2.913583e+01    7.294191e-01
  2.924696e+01    7.550830e-01
  2.935809e+01    7.304112e-01
  2.946922e+01    7.345461e-01
  2.958035e+01    7.212006e-01
  2.969148e+01    7.377082e-01
  2.980261e+01    7.392636e-01
  2.991374e+01    7.349567e-01
  3.002487e+01    7.714657e-01
  3.013600e+01    7.198744e-01
  3.024712e+01    7.349572e-01
  3.035825e+01    7.402012e-01
  3.046938e+01    7.219405e-01
  3.058051e+01    7.240591e-01
  3.069164e+01    7.272961e-01
  3.080277e+01    7.464297e-01
  3.091390e+01    7.067081e-01
  3.102503e+01    7.241989e-01
  3.113616e+01    7.287254e-01
  3.124729e+01    7.256395e-01
  3.135841e+01    7.172758e-01
  3.146954e+01    7.702790e-01
  3.158067e+01    8.049242e-01
  3.169180e+01    8.928475e-01
  3.180293e+01    1.192462e+00
  3.191406e+01    2.301625e+00
  3.202519e+01    2.045127e+00
  3.213632e+01    1.102565e+00
  3.224745e+01    8.645276e-01
  3.235858e+01    7.689403e-01
  3.246970e+01    7.706400e-01
  3.254908e+01    7.291543e-01