Folder: myspot_2024_07/XRD (part 27)

File: 2024-07-27_002_Ru-CGO-ex_Activtation_ramp_000002_data_000109.dat
# == pyFAI calibration ==
# Distance Sample to Detector: 0.4 m
# PONI: 9.750e-02, 1.135e-01 m
# Rotations: -0.000175 0.000000 -0.000000 rad
#
# == Fit2d calibration ==
# Distance Sample-beamCenter: 400.000 mm
# Center: x=1514.000, y=1300.000 pix
# Tilt: 0.010 deg  TiltPlanRot: 0.010 deg
#
# Detector Detector	 Spline= None	 PixelSize= 7.500e-05, 7.500e-05 m
#    Detector has a mask: False
#    Detector has a dark current: False
#    detector has a flat field: False
#
# Wavelength: 6.888e-11 m
# Mask applied: user provided
# Dark current applied: False
# Flat field applied: False
# Polarization factor: 0.99
# Normalization factor: 1.0
# --> /home/myspot/data/2024_07_Rosario/Ru-CGO-ex/2024-07-27_002_Ru-CGO-ex_Activtation_ramp_000002_data_000109.dat
#       q_nm^-1             I
  2.003187e-02    7.711350e-02
  1.311609e-01    3.085575e-02
  2.422899e-01    8.871552e-02
  3.534189e-01    1.145609e-02
  4.645479e-01    1.848111e-02
  5.756770e-01    5.205560e-02
  6.868060e-01    2.086115e-02
  7.979350e-01    1.462049e-01
  9.090640e-01    6.121380e-01
  1.020193e+00    1.085084e+00
  1.131322e+00    1.418876e+00
  1.242451e+00    2.182768e+00
  1.353580e+00    2.506305e+00
  1.464709e+00    2.795114e+00
  1.575838e+00    2.989955e+00
  1.686967e+00    2.790858e+00
  1.798096e+00    2.620042e+00
  1.909225e+00    2.727655e+00
  2.020354e+00    2.755453e+00
  2.131483e+00    2.700836e+00
  2.242612e+00    2.640713e+00
  2.353741e+00    2.725987e+00
  2.464870e+00    2.728188e+00
  2.575999e+00    2.793064e+00
  2.687128e+00    2.871790e+00
  2.798257e+00    2.715852e+00
  2.909386e+00    2.938530e+00
  3.020515e+00    2.763683e+00
  3.131644e+00    2.911618e+00
  3.242773e+00    2.903644e+00
  3.353902e+00    2.999812e+00
  3.465031e+00    2.966225e+00
  3.576160e+00    2.952869e+00
  3.687289e+00    2.924533e+00
  3.798418e+00    2.979358e+00
  3.909547e+00    2.945175e+00
  4.020676e+00    3.057336e+00
  4.131806e+00    2.994007e+00
  4.242935e+00    2.976545e+00
  4.354064e+00    2.961849e+00
  4.465193e+00    3.037427e+00
  4.576322e+00    2.960326e+00
  4.687451e+00    2.897232e+00
  4.798580e+00    3.067103e+00
  4.909709e+00    3.030817e+00
  5.020838e+00    2.974963e+00
  5.131967e+00    3.058863e+00
  5.243096e+00    3.056134e+00
  5.354225e+00    3.145348e+00
  5.465354e+00    3.011296e+00
  5.576483e+00    3.052268e+00
  5.687612e+00    3.025962e+00
  5.798741e+00    3.044945e+00
  5.909870e+00    2.903806e+00
  6.020999e+00    2.856632e+00
  6.132128e+00    3.113202e+00
  6.243257e+00    2.976849e+00
  6.354386e+00    3.030518e+00
  6.465515e+00    2.989002e+00
  6.576644e+00    2.967975e+00
  6.687773e+00    3.053464e+00
  6.798902e+00    2.878905e+00
  6.910031e+00    2.962291e+00
  7.021160e+00    3.011767e+00
  7.132289e+00    3.009356e+00
  7.243418e+00    3.037987e+00
  7.354547e+00    2.943258e+00
  7.465676e+00    2.961036e+00
  7.576805e+00    2.900367e+00
  7.687934e+00    2.875731e+00
  7.799063e+00    2.939468e+00
  7.910192e+00    2.844636e+00
  8.021321e+00    2.866016e+00
  8.132450e+00    2.868654e+00
  8.243579e+00    2.897352e+00
  8.354708e+00    2.801173e+00
  8.465837e+00    2.788072e+00
  8.576966e+00    2.809754e+00
  8.688095e+00    2.807952e+00
  8.799224e+00    2.816395e+00
  8.910353e+00    2.769706e+00
  9.021482e+00    2.797925e+00
  9.132611e+00    2.783467e+00
  9.243740e+00    2.689864e+00
  9.354869e+00    2.721411e+00
  9.465998e+00    2.736296e+00
  9.577127e+00    2.730699e+00
  9.688256e+00    2.666241e+00
  9.799385e+00    2.601299e+00
  9.910514e+00    2.651706e+00
  1.002164e+01    2.621501e+00
  1.013277e+01    2.622051e+00
  1.024390e+01    2.562906e+00
  1.035503e+01    2.575876e+00
  1.046616e+01    2.537193e+00
  1.057729e+01    2.544952e+00
  1.068842e+01    2.528456e+00
  1.079955e+01    2.515368e+00
  1.091068e+01    2.545986e+00
  1.102180e+01    2.468334e+00
  1.113293e+01    2.434251e+00
  1.124406e+01    2.449094e+00
  1.135519e+01    2.444045e+00
  1.146632e+01    2.437003e+00
  1.157745e+01    2.364253e+00
  1.168858e+01    2.350360e+00
  1.179971e+01    2.304038e+00
  1.191084e+01    2.299995e+00
  1.202197e+01    2.287672e+00
  1.213309e+01    2.278851e+00
  1.224422e+01    2.304618e+00
  1.235535e+01    2.281085e+00
  1.246648e+01    2.296567e+00
  1.257761e+01    2.325632e+00
  1.268874e+01    2.478823e+00
  1.279987e+01    2.644100e+00
  1.291100e+01    3.300997e+00
  1.302213e+01    6.101019e+00
  1.313326e+01    1.478906e+01
  1.324438e+01    1.234627e+01
  1.335551e+01    4.443916e+00
  1.346664e+01    2.911669e+00
  1.357777e+01    2.422479e+00
  1.368890e+01    2.230857e+00
  1.380003e+01    2.124389e+00
  1.391116e+01    2.037535e+00
  1.402229e+01    1.972923e+00
  1.413342e+01    1.951389e+00
  1.424455e+01    1.959477e+00
  1.435568e+01    1.923814e+00
  1.446680e+01    1.864889e+00
  1.457793e+01    1.890821e+00
  1.468906e+01    1.889082e+00
  1.480019e+01    1.873256e+00
  1.491132e+01    1.960229e+00
  1.502245e+01    2.194072e+00
  1.513358e+01    3.379149e+00
  1.524471e+01    5.813478e+00
  1.535584e+01    3.970380e+00
  1.546697e+01    2.224377e+00
  1.557809e+01    1.900353e+00
  1.568922e+01    1.740255e+00
  1.580035e+01    1.650105e+00
  1.591148e+01    1.596139e+00
  1.602261e+01    1.618816e+00
  1.613374e+01    1.554864e+00
  1.624487e+01    1.555633e+00
  1.635600e+01    1.494099e+00
  1.646713e+01    1.495337e+00
  1.657826e+01    1.467106e+00
  1.668938e+01    1.478515e+00
  1.680051e+01    1.452039e+00
  1.691164e+01    1.414501e+00
  1.702277e+01    1.394274e+00
  1.713390e+01    1.360890e+00
  1.724503e+01    1.414198e+00
  1.735616e+01    1.370077e+00
  1.746729e+01    1.340671e+00
  1.757842e+01    1.351611e+00
  1.768955e+01    1.349469e+00
  1.780067e+01    1.333684e+00
  1.791180e+01    1.304901e+00
  1.802293e+01    1.281664e+00
  1.813406e+01    1.275668e+00
  1.824519e+01    1.271606e+00
  1.835632e+01    1.278966e+00
  1.846745e+01    1.230858e+00
  1.857858e+01    1.220594e+00
  1.868971e+01    1.201834e+00
  1.880084e+01    1.196987e+00
  1.891196e+01    1.205968e+00
  1.902309e+01    1.208495e+00
  1.913422e+01    1.192935e+00
  1.924535e+01    1.173227e+00
  1.935648e+01    1.143679e+00
  1.946761e+01    1.147204e+00
  1.957874e+01    1.133523e+00
  1.968987e+01    1.139995e+00
  1.980100e+01    1.119845e+00
  1.991213e+01    1.099212e+00
  2.002325e+01    1.083318e+00
  2.013438e+01    1.077755e+00
  2.024551e+01    1.107076e+00
  2.035664e+01    1.106806e+00
  2.046777e+01    1.077076e+00
  2.057890e+01    1.048932e+00
  2.069003e+01    1.085406e+00
  2.080116e+01    1.048072e+00
  2.091229e+01    1.063966e+00
  2.102342e+01    1.058608e+00
  2.113455e+01    1.074777e+00
  2.124567e+01    1.074114e+00
  2.135680e+01    1.123471e+00
  2.146793e+01    1.228031e+00
  2.157906e+01    1.457743e+00
  2.169019e+01    2.296671e+00
  2.180132e+01    5.432324e+00
  2.191245e+01    9.664954e+00
  2.202358e+01    4.080575e+00
  2.213471e+01    1.862363e+00
  2.224584e+01    1.323137e+00
  2.235696e+01    1.127734e+00
  2.246809e+01    1.030515e+00
  2.257922e+01    9.595568e-01
  2.269035e+01    9.547619e-01
  2.280148e+01    9.391001e-01
  2.291261e+01    9.150361e-01
  2.302374e+01    9.071721e-01
  2.313487e+01    8.744640e-01
  2.324600e+01    8.463807e-01
  2.335713e+01    8.530089e-01
  2.346825e+01    8.548281e-01
  2.357938e+01    8.131220e-01
  2.369051e+01    8.154628e-01
  2.380164e+01    8.109092e-01
  2.391277e+01    8.047408e-01
  2.402390e+01    7.885450e-01
  2.413503e+01    7.809069e-01
  2.424616e+01    7.779804e-01
  2.435729e+01    7.570291e-01
  2.446842e+01    7.782000e-01
  2.457954e+01    7.836069e-01
  2.469067e+01    7.906237e-01
  2.480180e+01    7.848678e-01
  2.491293e+01    7.861720e-01
  2.502406e+01    8.152287e-01
  2.513519e+01    8.089272e-01
  2.524632e+01    8.434075e-01
  2.535745e+01    8.772371e-01
  2.546858e+01    9.427192e-01
  2.557971e+01    1.075239e+00
  2.569083e+01    1.376893e+00
  2.580196e+01    2.525451e+00
  2.591309e+01    6.214352e+00
  2.602422e+01    6.622564e+00
  2.613535e+01    2.454831e+00
  2.624648e+01    1.382253e+00
  2.635761e+01    1.051969e+00
  2.646874e+01    9.643249e-01
  2.657987e+01    9.105633e-01
  2.669100e+01    9.016482e-01
  2.680212e+01    9.131517e-01
  2.691325e+01    9.250485e-01
  2.702438e+01    1.063763e+00
  2.713551e+01    1.587469e+00
  2.724664e+01    2.294387e+00
  2.735777e+01    1.367281e+00
  2.746890e+01    9.426937e-01
  2.758003e+01    8.579068e-01
  2.769116e+01    8.189779e-01
  2.780229e+01    8.107048e-01
  2.791342e+01    7.848077e-01
  2.802454e+01    7.878923e-01
  2.813567e+01    7.654411e-01
  2.824680e+01    7.580821e-01
  2.835793e+01    7.532041e-01
  2.846906e+01    7.523597e-01
  2.858019e+01    7.537076e-01
  2.869132e+01    7.492057e-01
  2.880245e+01    7.234185e-01
  2.891358e+01    7.259346e-01
  2.902471e+01    7.394422e-01
  2.913583e+01    7.232071e-01
  2.924696e+01    7.255981e-01
  2.935809e+01    7.206996e-01
  2.946922e+01    7.237643e-01
  2.958035e+01    7.057583e-01
  2.969148e+01    7.111260e-01
  2.980261e+01    7.372531e-01
  2.991374e+01    7.368982e-01
  3.002487e+01    7.484322e-01
  3.013600e+01    7.081836e-01
  3.024712e+01    6.862417e-01
  3.035825e+01    7.209832e-01
  3.046938e+01    6.925016e-01
  3.058051e+01    7.167720e-01
  3.069164e+01    7.189273e-01
  3.080277e+01    7.016708e-01
  3.091390e+01    7.163562e-01
  3.102503e+01    7.135333e-01
  3.113616e+01    7.173328e-01
  3.124729e+01    7.097174e-01
  3.135841e+01    7.272279e-01
  3.146954e+01    7.576310e-01
  3.158067e+01    8.001097e-01
  3.169180e+01    9.201350e-01
  3.180293e+01    1.337686e+00
  3.191406e+01    2.247899e+00
  3.202519e+01    1.530139e+00
  3.213632e+01    9.251196e-01
  3.224745e+01    8.041321e-01
  3.235858e+01    7.516100e-01
  3.246970e+01    7.283850e-01
  3.254908e+01    7.497249e-01

File: 2024-07-27_002_Ru-CGO-ex_Activtation_ramp_000002_data_000110.dat
# == pyFAI calibration ==
# Distance Sample to Detector: 0.4 m
# PONI: 9.750e-02, 1.135e-01 m
# Rotations: -0.000175 0.000000 -0.000000 rad
#
# == Fit2d calibration ==
# Distance Sample-beamCenter: 400.000 mm
# Center: x=1514.000, y=1300.000 pix
# Tilt: 0.010 deg  TiltPlanRot: 0.010 deg
#
# Detector Detector	 Spline= None	 PixelSize= 7.500e-05, 7.500e-05 m
#    Detector has a mask: False
#    Detector has a dark current: False
#    detector has a flat field: False
#
# Wavelength: 6.888e-11 m
# Mask applied: user provided
# Dark current applied: False
# Flat field applied: False
# Polarization factor: 0.99
# Normalization factor: 1.0
# --> /home/myspot/data/2024_07_Rosario/Ru-CGO-ex/2024-07-27_002_Ru-CGO-ex_Activtation_ramp_000002_data_000110.dat
#       q_nm^-1             I
  2.003187e-02    1.647344e-01
  1.311609e-01    2.671539e-03
  2.422899e-01    3.209206e-02
  3.534189e-01    5.435245e-02
  4.645479e-01    3.513635e-02
  5.756770e-01    2.762394e-02
  6.868060e-01    4.417037e-02
  7.979350e-01    1.192284e-01
  9.090640e-01    5.292295e-01
  1.020193e+00    1.046429e+00
  1.131322e+00    1.472990e+00
  1.242451e+00    2.207308e+00
  1.353580e+00    2.511965e+00
  1.464709e+00    2.850754e+00
  1.575838e+00    2.881287e+00
  1.686967e+00    2.752635e+00
  1.798096e+00    2.838388e+00
  1.909225e+00    2.706790e+00
  2.020354e+00    2.778924e+00
  2.131483e+00    2.805484e+00
  2.242612e+00    2.699488e+00
  2.353741e+00    2.638303e+00
  2.464870e+00    2.709861e+00
  2.575999e+00    2.799101e+00
  2.687128e+00    2.719452e+00
  2.798257e+00    2.723258e+00
  2.909386e+00    2.742858e+00
  3.020515e+00    2.779811e+00
  3.131644e+00    2.860077e+00
  3.242773e+00    2.762496e+00
  3.353902e+00    2.819267e+00
  3.465031e+00    2.952240e+00
  3.576160e+00    2.855491e+00
  3.687289e+00    2.991743e+00
  3.798418e+00    2.822361e+00
  3.909547e+00    2.980071e+00
  4.020676e+00    3.051634e+00
  4.131806e+00    2.941344e+00
  4.242935e+00    3.005920e+00
  4.354064e+00    3.074914e+00
  4.465193e+00    3.042502e+00
  4.576322e+00    3.064805e+00
  4.687451e+00    3.017004e+00
  4.798580e+00    2.987351e+00
  4.909709e+00    3.019719e+00
  5.020838e+00    3.121850e+00
  5.131967e+00    3.064348e+00
  5.243096e+00    3.114743e+00
  5.354225e+00    3.036327e+00
  5.465354e+00    3.089791e+00
  5.576483e+00    3.019746e+00
  5.687612e+00    3.080141e+00
  5.798741e+00    3.033391e+00
  5.909870e+00    3.022481e+00
  6.020999e+00    2.982812e+00
  6.132128e+00    3.017125e+00
  6.243257e+00    2.956055e+00
  6.354386e+00    3.000427e+00
  6.465515e+00    2.922538e+00
  6.576644e+00    2.974633e+00
  6.687773e+00    3.051802e+00
  6.798902e+00    2.985108e+00
  6.910031e+00    2.931273e+00
  7.021160e+00    2.950077e+00
  7.132289e+00    3.001813e+00
  7.243418e+00    2.895104e+00
  7.354547e+00    2.943574e+00
  7.465676e+00    2.881533e+00
  7.576805e+00    2.970872e+00
  7.687934e+00    2.918229e+00
  7.799063e+00    2.872792e+00
  7.910192e+00    2.919521e+00
  8.021321e+00    2.896303e+00
  8.132450e+00    2.914603e+00
  8.243579e+00    2.871634e+00
  8.354708e+00    2.865072e+00
  8.465837e+00    2.789229e+00
  8.576966e+00    2.839542e+00
  8.688095e+00    2.820313e+00
  8.799224e+00    2.818400e+00
  8.910353e+00    2.792041e+00
  9.021482e+00    2.804644e+00
  9.132611e+00    2.762117e+00
  9.243740e+00    2.718099e+00
  9.354869e+00    2.727629e+00
  9.465998e+00    2.696737e+00
  9.577127e+00    2.740302e+00
  9.688256e+00    2.672221e+00
  9.799385e+00    2.695751e+00
  9.910514e+00    2.660645e+00
  1.002164e+01    2.615613e+00
  1.013277e+01    2.615249e+00
  1.024390e+01    2.563361e+00
  1.035503e+01    2.559675e+00
  1.046616e+01    2.529208e+00
  1.057729e+01    2.530785e+00
  1.068842e+01    2.541223e+00
  1.079955e+01    2.497026e+00
  1.091068e+01    2.461563e+00
  1.102180e+01    2.467621e+00
  1.113293e+01    2.446262e+00
  1.124406e+01    2.378605e+00
  1.135519e+01    2.365537e+00
  1.146632e+01    2.350457e+00
  1.157745e+01    2.372046e+00
  1.168858e+01    2.328191e+00
  1.179971e+01    2.269229e+00
  1.191084e+01    2.256834e+00
  1.202197e+01    2.321106e+00
  1.213309e+01    2.312048e+00
  1.224422e+01    2.227168e+00
  1.235535e+01    2.307938e+00
  1.246648e+01    2.285817e+00
  1.257761e+01    2.321085e+00
  1.268874e+01    2.417623e+00
  1.279987e+01    2.617289e+00
  1.291100e+01    3.244471e+00
  1.302213e+01    5.993711e+00
  1.313326e+01    1.464624e+01
  1.324438e+01    1.249185e+01
  1.335551e+01    4.457732e+00
  1.346664e+01    2.832431e+00
  1.357777e+01    2.394101e+00
  1.368890e+01    2.272427e+00
  1.380003e+01    2.095093e+00
  1.391116e+01    2.066429e+00
  1.402229e+01    2.011317e+00
  1.413342e+01    1.964142e+00
  1.424455e+01    1.975626e+00
  1.435568e+01    1.916810e+00
  1.446680e+01    1.867134e+00
  1.457793e+01    1.918570e+00
  1.468906e+01    1.879043e+00
  1.480019e+01    1.916398e+00
  1.491132e+01    1.929478e+00
  1.502245e+01    2.199130e+00
  1.513358e+01    3.395658e+00
  1.524471e+01    5.735394e+00
  1.535584e+01    3.992386e+00
  1.546697e+01    2.243143e+00
  1.557809e+01    1.891570e+00
  1.568922e+01    1.713240e+00
  1.580035e+01    1.671813e+00
  1.591148e+01    1.622539e+00
  1.602261e+01    1.606771e+00
  1.613374e+01    1.553862e+00
  1.624487e+01    1.535464e+00
  1.635600e+01    1.521409e+00
  1.646713e+01    1.501866e+00
  1.657826e+01    1.489304e+00
  1.668938e+01    1.460472e+00
  1.680051e+01    1.435661e+00
  1.691164e+01    1.431925e+00
  1.702277e+01    1.430327e+00
  1.713390e+01    1.390059e+00
  1.724503e+01    1.388604e+00
  1.735616e+01    1.373111e+00
  1.746729e+01    1.335514e+00
  1.757842e+01    1.334874e+00
  1.768955e+01    1.331304e+00
  1.780067e+01    1.312316e+00
  1.791180e+01    1.334254e+00
  1.802293e+01    1.302284e+00
  1.813406e+01    1.300910e+00
  1.824519e+01    1.251496e+00
  1.835632e+01    1.231394e+00
  1.846745e+01    1.246765e+00
  1.857858e+01    1.197640e+00
  1.868971e+01    1.191818e+00
  1.880084e+01    1.210289e+00
  1.891196e+01    1.190862e+00
  1.902309e+01    1.181295e+00
  1.913422e+01    1.155442e+00
  1.924535e+01    1.153792e+00
  1.935648e+01    1.145498e+00
  1.946761e+01    1.147643e+00
  1.957874e+01    1.124994e+00
  1.968987e+01    1.113866e+00
  1.980100e+01    1.113817e+00
  1.991213e+01    1.136631e+00
  2.002325e+01    1.105771e+00
  2.013438e+01    1.077767e+00
  2.024551e+01    1.105964e+00
  2.035664e+01    1.077112e+00
  2.046777e+01    1.089907e+00
  2.057890e+01    1.062524e+00
  2.069003e+01    1.051313e+00
  2.080116e+01    1.085561e+00
  2.091229e+01    1.075515e+00
  2.102342e+01    1.049693e+00
  2.113455e+01    1.062315e+00
  2.124567e+01    1.077609e+00
  2.135680e+01    1.123607e+00
  2.146793e+01    1.210700e+00
  2.157906e+01    1.459608e+00
  2.169019e+01    2.226847e+00
  2.180132e+01    5.303219e+00
  2.191245e+01    9.632500e+00
  2.202358e+01    4.185865e+00
  2.213471e+01    1.902191e+00
  2.224584e+01    1.313195e+00
  2.235696e+01    1.122880e+00
  2.246809e+01    1.018475e+00
  2.257922e+01    9.921409e-01
  2.269035e+01    9.468920e-01
  2.280148e+01    9.111543e-01
  2.291261e+01    9.008022e-01
  2.302374e+01    8.977507e-01
  2.313487e+01    8.501322e-01
  2.324600e+01    8.529859e-01
  2.335713e+01    8.520134e-01
  2.346825e+01    8.349047e-01
  2.357938e+01    8.467608e-01
  2.369051e+01    8.185650e-01
  2.380164e+01    8.018165e-01
  2.391277e+01    7.792848e-01
  2.402390e+01    7.779593e-01
  2.413503e+01    7.573844e-01
  2.424616e+01    7.718812e-01
  2.435729e+01    7.868363e-01
  2.446842e+01    7.862858e-01
  2.457954e+01    7.814122e-01
  2.469067e+01    7.856559e-01
  2.480180e+01    8.003816e-01
  2.491293e+01    7.971837e-01
  2.502406e+01    7.834051e-01
  2.513519e+01    8.036257e-01
  2.524632e+01    8.296727e-01
  2.535745e+01    8.772201e-01
  2.546858e+01    9.278073e-01
  2.557971e+01    1.050557e+00
  2.569083e+01    1.345940e+00
  2.580196e+01    2.485754e+00
  2.591309e+01    6.140535e+00
  2.602422e+01    6.761628e+00
  2.613535e+01    2.460770e+00
  2.624648e+01    1.401155e+00
  2.635761e+01    1.071918e+00
  2.646874e+01    9.545569e-01
  2.657987e+01    9.131501e-01
  2.669100e+01    8.699803e-01
  2.680212e+01    8.935664e-01
  2.691325e+01    9.165022e-01
  2.702438e+01    1.055193e+00
  2.713551e+01    1.589095e+00
  2.724664e+01    2.328505e+00
  2.735777e+01    1.325347e+00
  2.746890e+01    9.625462e-01
  2.758003e+01    8.598042e-01
  2.769116e+01    8.113819e-01
  2.780229e+01    7.929626e-01
  2.791342e+01    7.942367e-01
  2.802454e+01    7.802567e-01
  2.813567e+01    7.744270e-01
  2.824680e+01    7.648845e-01
  2.835793e+01    7.562678e-01
  2.846906e+01    7.484300e-01
  2.858019e+01    7.538488e-01
  2.869132e+01    7.533173e-01
  2.880245e+01    7.415450e-01
  2.891358e+01    7.229261e-01
  2.902471e+01    7.396852e-01
  2.913583e+01    7.279978e-01
  2.924696e+01    7.196099e-01
  2.935809e+01    7.311848e-01
  2.946922e+01    7.184401e-01
  2.958035e+01    6.987655e-01
  2.969148e+01    7.180704e-01
  2.980261e+01    7.074334e-01
  2.991374e+01    7.083764e-01
  3.002487e+01    7.360003e-01
  3.013600e+01    7.349834e-01
  3.024712e+01    6.984217e-01
  3.035825e+01    6.950013e-01
  3.046938e+01    7.079651e-01
  3.058051e+01    7.227461e-01
  3.069164e+01    7.246140e-01
  3.080277e+01    7.052867e-01
  3.091390e+01    7.238980e-01
  3.102503e+01    7.288730e-01
  3.113616e+01    7.233871e-01
  3.124729e+01    7.321010e-01
  3.135841e+01    7.173735e-01
  3.146954e+01    7.423412e-01
  3.158067e+01    7.970181e-01
  3.169180e+01    9.264338e-01
  3.180293e+01    1.300974e+00
  3.191406e+01    2.292322e+00
  3.202519e+01    1.521850e+00
  3.213632e+01    9.406220e-01
  3.224745e+01    8.076921e-01
  3.235858e+01    7.636510e-01
  3.246970e+01    7.301890e-01
  3.254908e+01    7.176669e-01