Folder: myspot_2024_07/XRD (part 31)

File: 2024-07-27_002_Ru-CGO-ex_Activtation_ramp_000002_data_000132.dat
# == pyFAI calibration ==
# Distance Sample to Detector: 0.4 m
# PONI: 9.750e-02, 1.135e-01 m
# Rotations: -0.000175 0.000000 -0.000000 rad
#
# == Fit2d calibration ==
# Distance Sample-beamCenter: 400.000 mm
# Center: x=1514.000, y=1300.000 pix
# Tilt: 0.010 deg  TiltPlanRot: 0.010 deg
#
# Detector Detector	 Spline= None	 PixelSize= 7.500e-05, 7.500e-05 m
#    Detector has a mask: False
#    Detector has a dark current: False
#    detector has a flat field: False
#
# Wavelength: 6.888e-11 m
# Mask applied: user provided
# Dark current applied: False
# Flat field applied: False
# Polarization factor: 0.99
# Normalization factor: 1.0
# --> /home/myspot/data/2024_07_Rosario/Ru-CGO-ex/2024-07-27_002_Ru-CGO-ex_Activtation_ramp_000002_data_000132.dat
#       q_nm^-1             I
  2.003187e-02    7.712624e-02
  1.311609e-01    3.975396e-02
  2.422899e-01    8.739873e-02
  3.534189e-01    5.307071e-02
  4.645479e-01    4.819874e-02
  5.756770e-01    2.004467e-02
  6.868060e-01    6.423850e-02
  7.979350e-01    1.276423e-01
  9.090640e-01    5.809719e-01
  1.020193e+00    1.123670e+00
  1.131322e+00    1.335149e+00
  1.242451e+00    2.333342e+00
  1.353580e+00    2.572630e+00
  1.464709e+00    2.714120e+00
  1.575838e+00    2.836465e+00
  1.686967e+00    2.882982e+00
  1.798096e+00    2.754220e+00
  1.909225e+00    2.658827e+00
  2.020354e+00    2.658884e+00
  2.131483e+00    2.754446e+00
  2.242612e+00    2.711736e+00
  2.353741e+00    2.739112e+00
  2.464870e+00    2.704428e+00
  2.575999e+00    2.706608e+00
  2.687128e+00    2.805295e+00
  2.798257e+00    2.823346e+00
  2.909386e+00    2.803632e+00
  3.020515e+00    2.833505e+00
  3.131644e+00    2.851639e+00
  3.242773e+00    2.842821e+00
  3.353902e+00    2.879732e+00
  3.465031e+00    2.982708e+00
  3.576160e+00    3.004943e+00
  3.687289e+00    2.928425e+00
  3.798418e+00    2.951195e+00
  3.909547e+00    2.936732e+00
  4.020676e+00    3.067424e+00
  4.131806e+00    3.024557e+00
  4.242935e+00    2.978817e+00
  4.354064e+00    3.059110e+00
  4.465193e+00    2.960922e+00
  4.576322e+00    3.001101e+00
  4.687451e+00    3.110828e+00
  4.798580e+00    3.036958e+00
  4.909709e+00    3.127209e+00
  5.020838e+00    3.008536e+00
  5.131967e+00    3.130239e+00
  5.243096e+00    3.001553e+00
  5.354225e+00    3.083347e+00
  5.465354e+00    2.971621e+00
  5.576483e+00    2.960360e+00
  5.687612e+00    3.048799e+00
  5.798741e+00    3.074788e+00
  5.909870e+00    3.008840e+00
  6.020999e+00    2.919766e+00
  6.132128e+00    3.027047e+00
  6.243257e+00    3.028466e+00
  6.354386e+00    3.085052e+00
  6.465515e+00    3.015876e+00
  6.576644e+00    3.007898e+00
  6.687773e+00    3.014007e+00
  6.798902e+00    2.994267e+00
  6.910031e+00    3.042019e+00
  7.021160e+00    2.992751e+00
  7.132289e+00    2.998149e+00
  7.243418e+00    3.017503e+00
  7.354547e+00    2.971580e+00
  7.465676e+00    2.971166e+00
  7.576805e+00    2.947903e+00
  7.687934e+00    2.846410e+00
  7.799063e+00    2.934494e+00
  7.910192e+00    2.850093e+00
  8.021321e+00    2.963834e+00
  8.132450e+00    2.991554e+00
  8.243579e+00    2.930766e+00
  8.354708e+00    2.901718e+00
  8.465837e+00    2.901613e+00
  8.576966e+00    2.803061e+00
  8.688095e+00    2.892910e+00
  8.799224e+00    2.793167e+00
  8.910353e+00    2.832285e+00
  9.021482e+00    2.841467e+00
  9.132611e+00    2.768603e+00
  9.243740e+00    2.760381e+00
  9.354869e+00    2.735244e+00
  9.465998e+00    2.728831e+00
  9.577127e+00    2.752130e+00
  9.688256e+00    2.739665e+00
  9.799385e+00    2.717266e+00
  9.910514e+00    2.655231e+00
  1.002164e+01    2.620842e+00
  1.013277e+01    2.612111e+00
  1.024390e+01    2.653350e+00
  1.035503e+01    2.596684e+00
  1.046616e+01    2.595694e+00
  1.057729e+01    2.618609e+00
  1.068842e+01    2.592419e+00
  1.079955e+01    2.568872e+00
  1.091068e+01    2.496843e+00
  1.102180e+01    2.460628e+00
  1.113293e+01    2.436829e+00
  1.124406e+01    2.443585e+00
  1.135519e+01    2.427309e+00
  1.146632e+01    2.356831e+00
  1.157745e+01    2.369601e+00
  1.168858e+01    2.332822e+00
  1.179971e+01    2.412193e+00
  1.191084e+01    2.343364e+00
  1.202197e+01    2.362162e+00
  1.213309e+01    2.297242e+00
  1.224422e+01    2.288473e+00
  1.235535e+01    2.320807e+00
  1.246648e+01    2.346981e+00
  1.257761e+01    2.357304e+00
  1.268874e+01    2.403951e+00
  1.279987e+01    2.604777e+00
  1.291100e+01    3.284764e+00
  1.302213e+01    6.162008e+00
  1.313326e+01    1.471957e+01
  1.324438e+01    1.176073e+01
  1.335551e+01    4.335662e+00
  1.346664e+01    2.796669e+00
  1.357777e+01    2.398312e+00
  1.368890e+01    2.247064e+00
  1.380003e+01    2.162161e+00
  1.391116e+01    2.084059e+00
  1.402229e+01    2.044856e+00
  1.413342e+01    2.011864e+00
  1.424455e+01    2.002135e+00
  1.435568e+01    1.911399e+00
  1.446680e+01    1.847655e+00
  1.457793e+01    1.864416e+00
  1.468906e+01    1.910725e+00
  1.480019e+01    1.940421e+00
  1.491132e+01    2.035274e+00
  1.502245e+01    2.183578e+00
  1.513358e+01    3.433880e+00
  1.524471e+01    5.652546e+00
  1.535584e+01    3.850423e+00
  1.546697e+01    2.230005e+00
  1.557809e+01    1.836527e+00
  1.568922e+01    1.737987e+00
  1.580035e+01    1.659214e+00
  1.591148e+01    1.672543e+00
  1.602261e+01    1.569065e+00
  1.613374e+01    1.583962e+00
  1.624487e+01    1.584759e+00
  1.635600e+01    1.550099e+00
  1.646713e+01    1.521690e+00
  1.657826e+01    1.498250e+00
  1.668938e+01    1.464272e+00
  1.680051e+01    1.473225e+00
  1.691164e+01    1.436313e+00
  1.702277e+01    1.448154e+00
  1.713390e+01    1.375829e+00
  1.724503e+01    1.394332e+00
  1.735616e+01    1.380603e+00
  1.746729e+01    1.349768e+00
  1.757842e+01    1.348019e+00
  1.768955e+01    1.302114e+00
  1.780067e+01    1.334039e+00
  1.791180e+01    1.306355e+00
  1.802293e+01    1.275506e+00
  1.813406e+01    1.282076e+00
  1.824519e+01    1.298998e+00
  1.835632e+01    1.262856e+00
  1.846745e+01    1.247242e+00
  1.857858e+01    1.208548e+00
  1.868971e+01    1.181332e+00
  1.880084e+01    1.195753e+00
  1.891196e+01    1.216618e+00
  1.902309e+01    1.184897e+00
  1.913422e+01    1.164031e+00
  1.924535e+01    1.154260e+00
  1.935648e+01    1.161281e+00
  1.946761e+01    1.135272e+00
  1.957874e+01    1.165655e+00
  1.968987e+01    1.155538e+00
  1.980100e+01    1.104688e+00
  1.991213e+01    1.116682e+00
  2.002325e+01    1.113353e+00
  2.013438e+01    1.069868e+00
  2.024551e+01    1.089677e+00
  2.035664e+01    1.077092e+00
  2.046777e+01    1.083098e+00
  2.057890e+01    1.043735e+00
  2.069003e+01    1.073506e+00
  2.080116e+01    1.059365e+00
  2.091229e+01    1.085580e+00
  2.102342e+01    1.088903e+00
  2.113455e+01    1.047790e+00
  2.124567e+01    1.125878e+00
  2.135680e+01    1.128901e+00
  2.146793e+01    1.213310e+00
  2.157906e+01    1.470923e+00
  2.169019e+01    2.284311e+00
  2.180132e+01    5.501454e+00
  2.191245e+01    9.361706e+00
  2.202358e+01    3.896655e+00
  2.213471e+01    1.804204e+00
  2.224584e+01    1.287688e+00
  2.235696e+01    1.120799e+00
  2.246809e+01    1.061234e+00
  2.257922e+01    9.950787e-01
  2.269035e+01    9.236041e-01
  2.280148e+01    9.318167e-01
  2.291261e+01    9.125275e-01
  2.302374e+01    8.807781e-01
  2.313487e+01    8.647318e-01
  2.324600e+01    8.653735e-01
  2.335713e+01    8.507978e-01
  2.346825e+01    8.179020e-01
  2.357938e+01    8.298016e-01
  2.369051e+01    8.081784e-01
  2.380164e+01    8.109078e-01
  2.391277e+01    8.046050e-01
  2.402390e+01    7.883531e-01
  2.413503e+01    7.857786e-01
  2.424616e+01    7.897928e-01
  2.435729e+01    8.013550e-01
  2.446842e+01    8.156590e-01
  2.457954e+01    7.772999e-01
  2.469067e+01    7.813898e-01
  2.480180e+01    7.939053e-01
  2.491293e+01    8.050641e-01
  2.502406e+01    8.114103e-01
  2.513519e+01    8.393963e-01
  2.524632e+01    8.350993e-01
  2.535745e+01    8.872591e-01
  2.546858e+01    9.301325e-01
  2.557971e+01    1.032223e+00
  2.569083e+01    1.404086e+00
  2.580196e+01    2.591129e+00
  2.591309e+01    6.275085e+00
  2.602422e+01    6.098890e+00
  2.613535e+01    2.281821e+00
  2.624648e+01    1.332548e+00
  2.635761e+01    1.054071e+00
  2.646874e+01    9.572771e-01
  2.657987e+01    9.060434e-01
  2.669100e+01    8.919291e-01
  2.680212e+01    8.973112e-01
  2.691325e+01    9.325004e-01
  2.702438e+01    1.052858e+00
  2.713551e+01    1.623312e+00
  2.724664e+01    2.240680e+00
  2.735777e+01    1.280670e+00
  2.746890e+01    9.757695e-01
  2.758003e+01    8.648248e-01
  2.769116e+01    8.319994e-01
  2.780229e+01    7.999429e-01
  2.791342e+01    7.959399e-01
  2.802454e+01    7.930347e-01
  2.813567e+01    7.720774e-01
  2.824680e+01    7.637224e-01
  2.835793e+01    7.700045e-01
  2.846906e+01    7.538486e-01
  2.858019e+01    7.654378e-01
  2.869132e+01    7.456970e-01
  2.880245e+01    7.479607e-01
  2.891358e+01    7.467470e-01
  2.902471e+01    7.315844e-01
  2.913583e+01    7.278543e-01
  2.924696e+01    7.316457e-01
  2.935809e+01    7.117127e-01
  2.946922e+01    7.142251e-01
  2.958035e+01    7.254736e-01
  2.969148e+01    7.268721e-01
  2.980261e+01    7.344797e-01
  2.991374e+01    7.078329e-01
  3.002487e+01    7.309719e-01
  3.013600e+01    7.008549e-01
  3.024712e+01    7.215345e-01
  3.035825e+01    7.367715e-01
  3.046938e+01    7.142884e-01
  3.058051e+01    7.055668e-01
  3.069164e+01    7.093657e-01
  3.080277e+01    7.194371e-01
  3.091390e+01    7.179137e-01
  3.102503e+01    7.043077e-01
  3.113616e+01    7.223098e-01
  3.124729e+01    7.319728e-01
  3.135841e+01    7.184778e-01
  3.146954e+01    7.668105e-01
  3.158067e+01    7.844928e-01
  3.169180e+01    9.271912e-01
  3.180293e+01    1.386615e+00
  3.191406e+01    2.255651e+00
  3.202519e+01    1.387401e+00
  3.213632e+01    8.941009e-01
  3.224745e+01    7.704579e-01
  3.235858e+01    7.605201e-01
  3.246970e+01    7.270880e-01
  3.254908e+01    7.304802e-01

File: 2024-07-27_002_Ru-CGO-ex_Activtation_ramp_000002_data_000135.dat
# == pyFAI calibration ==
# Distance Sample to Detector: 0.4 m
# PONI: 9.750e-02, 1.135e-01 m
# Rotations: -0.000175 0.000000 -0.000000 rad
#
# == Fit2d calibration ==
# Distance Sample-beamCenter: 400.000 mm
# Center: x=1514.000, y=1300.000 pix
# Tilt: 0.010 deg  TiltPlanRot: 0.010 deg
#
# Detector Detector	 Spline= None	 PixelSize= 7.500e-05, 7.500e-05 m
#    Detector has a mask: False
#    Detector has a dark current: False
#    detector has a flat field: False
#
# Wavelength: 6.888e-11 m
# Mask applied: user provided
# Dark current applied: False
# Flat field applied: False
# Polarization factor: 0.99
# Normalization factor: 1.0
# --> /home/myspot/data/2024_07_Rosario/Ru-CGO-ex/2024-07-27_002_Ru-CGO-ex_Activtation_ramp_000002_data_000135.dat
#       q_nm^-1             I
  2.003187e-02    0.000000e+00
  1.311609e-01    0.000000e+00
  2.422899e-01    5.646945e-02
  3.534189e-01    2.110513e-02
  4.645479e-01    3.840003e-02
  5.756770e-01    3.565724e-02
  6.868060e-01    3.599530e-02
  7.979350e-01    1.249447e-01
  9.090640e-01    5.676963e-01
  1.020193e+00    1.073548e+00
  1.131322e+00    1.369579e+00
  1.242451e+00    2.284938e+00
  1.353580e+00    2.531079e+00
  1.464709e+00    2.843000e+00
  1.575838e+00    2.909022e+00
  1.686967e+00    2.852371e+00
  1.798096e+00    2.638610e+00
  1.909225e+00    2.767727e+00
  2.020354e+00    2.676225e+00
  2.131483e+00    2.672745e+00
  2.242612e+00    2.710116e+00
  2.353741e+00    2.688476e+00
  2.464870e+00    2.766432e+00
  2.575999e+00    2.596651e+00
  2.687128e+00    2.885873e+00
  2.798257e+00    2.776051e+00
  2.909386e+00    2.754114e+00
  3.020515e+00    2.948351e+00
  3.131644e+00    2.869497e+00
  3.242773e+00    2.933536e+00
  3.353902e+00    2.951570e+00
  3.465031e+00    2.974349e+00
  3.576160e+00    2.998346e+00
  3.687289e+00    2.906487e+00
  3.798418e+00    2.952217e+00
  3.909547e+00    2.985839e+00
  4.020676e+00    3.034526e+00
  4.131806e+00    2.968912e+00
  4.242935e+00    3.034197e+00
  4.354064e+00    3.057609e+00
  4.465193e+00    3.047852e+00
  4.576322e+00    3.081530e+00
  4.687451e+00    2.950946e+00
  4.798580e+00    3.054244e+00
  4.909709e+00    3.057137e+00
  5.020838e+00    3.105327e+00
  5.131967e+00    3.108264e+00
  5.243096e+00    3.106388e+00
  5.354225e+00    3.064813e+00
  5.465354e+00    3.003152e+00
  5.576483e+00    3.129274e+00
  5.687612e+00    3.094290e+00
  5.798741e+00    3.009730e+00
  5.909870e+00    3.056778e+00
  6.020999e+00    3.080300e+00
  6.132128e+00    3.061019e+00
  6.243257e+00    3.033715e+00
  6.354386e+00    3.008602e+00
  6.465515e+00    2.989502e+00
  6.576644e+00    2.949227e+00
  6.687773e+00    2.951917e+00
  6.798902e+00    3.020116e+00
  6.910031e+00    3.038932e+00
  7.021160e+00    2.951616e+00
  7.132289e+00    3.008952e+00
  7.243418e+00    2.904473e+00
  7.354547e+00    2.902462e+00
  7.465676e+00    3.010954e+00
  7.576805e+00    2.898067e+00
  7.687934e+00    2.947458e+00
  7.799063e+00    2.944298e+00
  7.910192e+00    2.942649e+00
  8.021321e+00    2.922667e+00
  8.132450e+00    2.922322e+00
  8.243579e+00    2.931576e+00
  8.354708e+00    2.917335e+00
  8.465837e+00    2.823394e+00
  8.576966e+00    2.813296e+00
  8.688095e+00    2.864387e+00
  8.799224e+00    2.811661e+00
  8.910353e+00    2.823695e+00
  9.021482e+00    2.807039e+00
  9.132611e+00    2.750440e+00
  9.243740e+00    2.844722e+00
  9.354869e+00    2.743851e+00
  9.465998e+00    2.733890e+00
  9.577127e+00    2.756848e+00
  9.688256e+00    2.674189e+00
  9.799385e+00    2.714012e+00
  9.910514e+00    2.618395e+00
  1.002164e+01    2.626384e+00
  1.013277e+01    2.613946e+00
  1.024390e+01    2.589011e+00
  1.035503e+01    2.606987e+00
  1.046616e+01    2.591482e+00
  1.057729e+01    2.595780e+00
  1.068842e+01    2.560331e+00
  1.079955e+01    2.551103e+00
  1.091068e+01    2.533499e+00
  1.102180e+01    2.448264e+00
  1.113293e+01    2.488476e+00
  1.124406e+01    2.415896e+00
  1.135519e+01    2.457042e+00
  1.146632e+01    2.404625e+00
  1.157745e+01    2.357902e+00
  1.168858e+01    2.333728e+00
  1.179971e+01    2.306418e+00
  1.191084e+01    2.331643e+00
  1.202197e+01    2.337373e+00
  1.213309e+01    2.322441e+00
  1.224422e+01    2.318622e+00
  1.235535e+01    2.301149e+00
  1.246648e+01    2.320176e+00
  1.257761e+01    2.361794e+00
  1.268874e+01    2.393017e+00
  1.279987e+01    2.642239e+00
  1.291100e+01    3.291181e+00
  1.302213e+01    6.198927e+00
  1.313326e+01    1.458223e+01
  1.324438e+01    1.165346e+01
  1.335551e+01    4.348823e+00
  1.346664e+01    2.785547e+00
  1.357777e+01    2.443979e+00
  1.368890e+01    2.264524e+00
  1.380003e+01    2.168572e+00
  1.391116e+01    2.105539e+00
  1.402229e+01    2.050187e+00
  1.413342e+01    1.986785e+00
  1.424455e+01    1.962969e+00
  1.435568e+01    1.952242e+00
  1.446680e+01    1.919755e+00
  1.457793e+01    1.912559e+00
  1.468906e+01    1.862612e+00
  1.480019e+01    1.895044e+00
  1.491132e+01    1.982226e+00
  1.502245e+01    2.186728e+00
  1.513358e+01    3.484893e+00
  1.524471e+01    5.644323e+00
  1.535584e+01    3.775440e+00
  1.546697e+01    2.180354e+00
  1.557809e+01    1.819407e+00
  1.568922e+01    1.745214e+00
  1.580035e+01    1.663601e+00
  1.591148e+01    1.632936e+00
  1.602261e+01    1.579034e+00
  1.613374e+01    1.566695e+00
  1.624487e+01    1.568827e+00
  1.635600e+01    1.505771e+00
  1.646713e+01    1.540806e+00
  1.657826e+01    1.439440e+00
  1.668938e+01    1.458481e+00
  1.680051e+01    1.454569e+00
  1.691164e+01    1.445410e+00
  1.702277e+01    1.428789e+00
  1.713390e+01    1.408928e+00
  1.724503e+01    1.385577e+00
  1.735616e+01    1.404387e+00
  1.746729e+01    1.348297e+00
  1.757842e+01    1.351000e+00
  1.768955e+01    1.330092e+00
  1.780067e+01    1.317720e+00
  1.791180e+01    1.305910e+00
  1.802293e+01    1.292100e+00
  1.813406e+01    1.270758e+00
  1.824519e+01    1.270931e+00
  1.835632e+01    1.238537e+00
  1.846745e+01    1.256504e+00
  1.857858e+01    1.273424e+00
  1.868971e+01    1.235558e+00
  1.880084e+01    1.220560e+00
  1.891196e+01    1.207344e+00
  1.902309e+01    1.195561e+00
  1.913422e+01    1.175472e+00
  1.924535e+01    1.179332e+00
  1.935648e+01    1.177945e+00
  1.946761e+01    1.171477e+00
  1.957874e+01    1.156900e+00
  1.968987e+01    1.136656e+00
  1.980100e+01    1.134934e+00
  1.991213e+01    1.104216e+00
  2.002325e+01    1.105915e+00
  2.013438e+01    1.106223e+00
  2.024551e+01    1.117484e+00
  2.035664e+01    1.092587e+00
  2.046777e+01    1.071011e+00
  2.057890e+01    1.073387e+00
  2.069003e+01    1.067882e+00
  2.080116e+01    1.089707e+00
  2.091229e+01    1.092533e+00
  2.102342e+01    1.067158e+00
  2.113455e+01    1.065219e+00
  2.124567e+01    1.092576e+00
  2.135680e+01    1.142890e+00
  2.146793e+01    1.232108e+00
  2.157906e+01    1.484647e+00
  2.169019e+01    2.313856e+00
  2.180132e+01    5.533411e+00
  2.191245e+01    9.264041e+00
  2.202358e+01    3.864563e+00
  2.213471e+01    1.806108e+00
  2.224584e+01    1.305960e+00
  2.235696e+01    1.114482e+00
  2.246809e+01    1.031838e+00
  2.257922e+01    9.720302e-01
  2.269035e+01    9.233071e-01
  2.280148e+01    9.219965e-01
  2.291261e+01    9.112603e-01
  2.302374e+01    9.050281e-01
  2.313487e+01    8.787292e-01
  2.324600e+01    8.775647e-01
  2.335713e+01    8.568186e-01
  2.346825e+01    8.564700e-01
  2.357938e+01    8.317673e-01
  2.369051e+01    8.672005e-01
  2.380164e+01    7.883794e-01
  2.391277e+01    7.934098e-01
  2.402390e+01    7.861584e-01
  2.413503e+01    7.585346e-01
  2.424616e+01    7.734933e-01
  2.435729e+01    7.617054e-01
  2.446842e+01    7.885507e-01
  2.457954e+01    8.129521e-01
  2.469067e+01    7.540916e-01
  2.480180e+01    7.769282e-01
  2.491293e+01    7.939309e-01
  2.502406e+01    7.846466e-01
  2.513519e+01    8.135117e-01
  2.524632e+01    8.396230e-01
  2.535745e+01    8.852793e-01
  2.546858e+01    9.154513e-01
  2.557971e+01    1.073957e+00
  2.569083e+01    1.404407e+00
  2.580196e+01    2.639521e+00
  2.591309e+01    6.260858e+00
  2.602422e+01    6.103228e+00
  2.613535e+01    2.250349e+00
  2.624648e+01    1.303445e+00
  2.635761e+01    1.048524e+00
  2.646874e+01    9.662678e-01
  2.657987e+01    9.167509e-01
  2.669100e+01    8.755955e-01
  2.680212e+01    8.727328e-01
  2.691325e+01    9.402587e-01
  2.702438e+01    1.044471e+00
  2.713551e+01    1.584381e+00
  2.724664e+01    2.198359e+00
  2.735777e+01    1.291703e+00
  2.746890e+01    9.534776e-01
  2.758003e+01    8.689888e-01
  2.769116e+01    8.053374e-01
  2.780229e+01    8.171804e-01
  2.791342e+01    7.914519e-01
  2.802454e+01    7.681538e-01
  2.813567e+01    7.921080e-01
  2.824680e+01    7.531285e-01
  2.835793e+01    7.640429e-01
  2.846906e+01    7.516624e-01
  2.858019e+01    7.319069e-01
  2.869132e+01    7.649544e-01
  2.880245e+01    7.500365e-01
  2.891358e+01    7.496850e-01
  2.902471e+01    7.499281e-01
  2.913583e+01    7.325489e-01
  2.924696e+01    7.241023e-01
  2.935809e+01    7.195343e-01
  2.946922e+01    7.204758e-01
  2.958035e+01    7.327155e-01
  2.969148e+01    7.278271e-01
  2.980261e+01    7.289325e-01
  2.991374e+01    7.180508e-01
  3.002487e+01    7.223457e-01
  3.013600e+01    6.963158e-01
  3.024712e+01    7.017672e-01
  3.035825e+01    7.239739e-01
  3.046938e+01    7.106430e-01
  3.058051e+01    7.067508e-01
  3.069164e+01    7.007549e-01
  3.080277e+01    7.099221e-01
  3.091390e+01    7.037025e-01
  3.102503e+01    7.220256e-01
  3.113616e+01    7.322196e-01
  3.124729e+01    7.337865e-01
  3.135841e+01    7.440488e-01
  3.146954e+01    7.377791e-01
  3.158067e+01    7.886013e-01
  3.169180e+01    9.274551e-01
  3.180293e+01    1.409402e+00
  3.191406e+01    2.241122e+00
  3.202519e+01    1.412413e+00
  3.213632e+01    8.937002e-01
  3.224745e+01    7.780423e-01
  3.235858e+01    7.563881e-01
  3.246970e+01    7.079275e-01
  3.254908e+01    7.356716e-01