Folder: myspot_2024_07/XRD (part 21)

File: 2024-07-27_002_Ru-CGO-ex_Activtation_ramp_000002_data_000088.dat
# == pyFAI calibration ==
# Distance Sample to Detector: 0.4 m
# PONI: 9.750e-02, 1.135e-01 m
# Rotations: -0.000175 0.000000 -0.000000 rad
#
# == Fit2d calibration ==
# Distance Sample-beamCenter: 400.000 mm
# Center: x=1514.000, y=1300.000 pix
# Tilt: 0.010 deg  TiltPlanRot: 0.010 deg
#
# Detector Detector	 Spline= None	 PixelSize= 7.500e-05, 7.500e-05 m
#    Detector has a mask: False
#    Detector has a dark current: False
#    detector has a flat field: False
#
# Wavelength: 6.888e-11 m
# Mask applied: user provided
# Dark current applied: False
# Flat field applied: False
# Polarization factor: 0.99
# Normalization factor: 1.0
# --> /home/myspot/data/2024_07_Rosario/Ru-CGO-ex/2024-07-27_002_Ru-CGO-ex_Activtation_ramp_000002_data_000088.dat
#       q_nm^-1             I
  2.003187e-02    1.424646e-01
  1.311609e-01    3.611246e-02
  2.422899e-01    4.042612e-02
  3.534189e-01    4.220825e-02
  4.645479e-01    3.306135e-02
  5.756770e-01    5.406031e-02
  6.868060e-01    4.140513e-02
  7.979350e-01    1.473177e-01
  9.090640e-01    6.081271e-01
  1.020193e+00    1.015585e+00
  1.131322e+00    1.304287e+00
  1.242451e+00    2.292031e+00
  1.353580e+00    2.579785e+00
  1.464709e+00    2.613173e+00
  1.575838e+00    2.969998e+00
  1.686967e+00    2.728835e+00
  1.798096e+00    2.668310e+00
  1.909225e+00    2.752656e+00
  2.020354e+00    2.673032e+00
  2.131483e+00    2.690473e+00
  2.242612e+00    2.630083e+00
  2.353741e+00    2.674554e+00
  2.464870e+00    2.754886e+00
  2.575999e+00    2.833139e+00
  2.687128e+00    2.764310e+00
  2.798257e+00    2.773847e+00
  2.909386e+00    2.756007e+00
  3.020515e+00    2.780059e+00
  3.131644e+00    2.868029e+00
  3.242773e+00    2.805313e+00
  3.353902e+00    3.002349e+00
  3.465031e+00    2.899987e+00
  3.576160e+00    2.938552e+00
  3.687289e+00    3.021534e+00
  3.798418e+00    2.923554e+00
  3.909547e+00    3.023310e+00
  4.020676e+00    2.927670e+00
  4.131806e+00    3.046000e+00
  4.242935e+00    3.028163e+00
  4.354064e+00    2.973013e+00
  4.465193e+00    3.097387e+00
  4.576322e+00    2.949665e+00
  4.687451e+00    3.078366e+00
  4.798580e+00    3.152904e+00
  4.909709e+00    2.970254e+00
  5.020838e+00    3.064579e+00
  5.131967e+00    3.034090e+00
  5.243096e+00    3.013115e+00
  5.354225e+00    3.106622e+00
  5.465354e+00    3.015044e+00
  5.576483e+00    3.051604e+00
  5.687612e+00    2.913254e+00
  5.798741e+00    2.992135e+00
  5.909870e+00    3.064175e+00
  6.020999e+00    2.950460e+00
  6.132128e+00    2.964049e+00
  6.243257e+00    2.977085e+00
  6.354386e+00    3.032642e+00
  6.465515e+00    3.013612e+00
  6.576644e+00    3.072401e+00
  6.687773e+00    3.015684e+00
  6.798902e+00    2.976247e+00
  6.910031e+00    2.912990e+00
  7.021160e+00    3.002092e+00
  7.132289e+00    2.944265e+00
  7.243418e+00    2.928779e+00
  7.354547e+00    2.940073e+00
  7.465676e+00    2.945149e+00
  7.576805e+00    2.869132e+00
  7.687934e+00    2.912756e+00
  7.799063e+00    2.830739e+00
  7.910192e+00    2.889471e+00
  8.021321e+00    2.846673e+00
  8.132450e+00    2.897871e+00
  8.243579e+00    2.906436e+00
  8.354708e+00    2.838761e+00
  8.465837e+00    2.794117e+00
  8.576966e+00    2.855066e+00
  8.688095e+00    2.797417e+00
  8.799224e+00    2.801571e+00
  8.910353e+00    2.764530e+00
  9.021482e+00    2.752701e+00
  9.132611e+00    2.743562e+00
  9.243740e+00    2.735048e+00
  9.354869e+00    2.675577e+00
  9.465998e+00    2.730303e+00
  9.577127e+00    2.721983e+00
  9.688256e+00    2.706864e+00
  9.799385e+00    2.657192e+00
  9.910514e+00    2.638613e+00
  1.002164e+01    2.596426e+00
  1.013277e+01    2.648006e+00
  1.024390e+01    2.580495e+00
  1.035503e+01    2.585523e+00
  1.046616e+01    2.560154e+00
  1.057729e+01    2.532573e+00
  1.068842e+01    2.548071e+00
  1.079955e+01    2.505443e+00
  1.091068e+01    2.544904e+00
  1.102180e+01    2.474146e+00
  1.113293e+01    2.447368e+00
  1.124406e+01    2.393487e+00
  1.135519e+01    2.383705e+00
  1.146632e+01    2.364278e+00
  1.157745e+01    2.346243e+00
  1.168858e+01    2.317987e+00
  1.179971e+01    2.336628e+00
  1.191084e+01    2.315816e+00
  1.202197e+01    2.266549e+00
  1.213309e+01    2.303957e+00
  1.224422e+01    2.313542e+00
  1.235535e+01    2.320122e+00
  1.246648e+01    2.305760e+00
  1.257761e+01    2.341586e+00
  1.268874e+01    2.404899e+00
  1.279987e+01    2.608887e+00
  1.291100e+01    3.242153e+00
  1.302213e+01    6.051355e+00
  1.313326e+01    1.479350e+01
  1.324438e+01    1.347011e+01
  1.335551e+01    4.623883e+00
  1.346664e+01    2.938692e+00
  1.357777e+01    2.468203e+00
  1.368890e+01    2.257448e+00
  1.380003e+01    2.155711e+00
  1.391116e+01    2.083549e+00
  1.402229e+01    2.035916e+00
  1.413342e+01    2.012767e+00
  1.424455e+01    1.956387e+00
  1.435568e+01    1.921299e+00
  1.446680e+01    1.914278e+00
  1.457793e+01    1.907418e+00
  1.468906e+01    1.873254e+00
  1.480019e+01    1.891351e+00
  1.491132e+01    1.948975e+00
  1.502245e+01    2.209679e+00
  1.513358e+01    3.379358e+00
  1.524471e+01    5.804823e+00
  1.535584e+01    4.202573e+00
  1.546697e+01    2.283277e+00
  1.557809e+01    1.900493e+00
  1.568922e+01    1.730292e+00
  1.580035e+01    1.678136e+00
  1.591148e+01    1.628901e+00
  1.602261e+01    1.616918e+00
  1.613374e+01    1.601286e+00
  1.624487e+01    1.545067e+00
  1.635600e+01    1.522473e+00
  1.646713e+01    1.478935e+00
  1.657826e+01    1.490575e+00
  1.668938e+01    1.444784e+00
  1.680051e+01    1.426633e+00
  1.691164e+01    1.436091e+00
  1.702277e+01    1.418344e+00
  1.713390e+01    1.381637e+00
  1.724503e+01    1.383460e+00
  1.735616e+01    1.353869e+00
  1.746729e+01    1.349617e+00
  1.757842e+01    1.330894e+00
  1.768955e+01    1.321582e+00
  1.780067e+01    1.300585e+00
  1.791180e+01    1.319939e+00
  1.802293e+01    1.290464e+00
  1.813406e+01    1.297066e+00
  1.824519e+01    1.267737e+00
  1.835632e+01    1.274480e+00
  1.846745e+01    1.255385e+00
  1.857858e+01    1.235508e+00
  1.868971e+01    1.224393e+00
  1.880084e+01    1.194847e+00
  1.891196e+01    1.185483e+00
  1.902309e+01    1.205013e+00
  1.913422e+01    1.170347e+00
  1.924535e+01    1.186777e+00
  1.935648e+01    1.173898e+00
  1.946761e+01    1.150307e+00
  1.957874e+01    1.125578e+00
  1.968987e+01    1.121535e+00
  1.980100e+01    1.133521e+00
  1.991213e+01    1.100678e+00
  2.002325e+01    1.086521e+00
  2.013438e+01    1.107213e+00
  2.024551e+01    1.085575e+00
  2.035664e+01    1.080096e+00
  2.046777e+01    1.070316e+00
  2.057890e+01    1.066443e+00
  2.069003e+01    1.074573e+00
  2.080116e+01    1.080575e+00
  2.091229e+01    1.056552e+00
  2.102342e+01    1.075273e+00
  2.113455e+01    1.083931e+00
  2.124567e+01    1.102140e+00
  2.135680e+01    1.152355e+00
  2.146793e+01    1.218909e+00
  2.157906e+01    1.446562e+00
  2.169019e+01    2.227149e+00
  2.180132e+01    5.247615e+00
  2.191245e+01    1.000110e+01
  2.202358e+01    4.533561e+00
  2.213471e+01    1.984021e+00
  2.224584e+01    1.348439e+00
  2.235696e+01    1.147249e+00
  2.246809e+01    1.061117e+00
  2.257922e+01    9.831507e-01
  2.269035e+01    9.735532e-01
  2.280148e+01    9.254101e-01
  2.291261e+01    9.127506e-01
  2.302374e+01    9.048498e-01
  2.313487e+01    8.763413e-01
  2.324600e+01    8.664682e-01
  2.335713e+01    8.588258e-01
  2.346825e+01    8.542221e-01
  2.357938e+01    8.293654e-01
  2.369051e+01    8.171786e-01
  2.380164e+01    8.060194e-01
  2.391277e+01    8.004066e-01
  2.402390e+01    8.210497e-01
  2.413503e+01    7.723719e-01
  2.424616e+01    7.809500e-01
  2.435729e+01    7.853166e-01
  2.446842e+01    7.838492e-01
  2.457954e+01    7.853062e-01
  2.469067e+01    7.989903e-01
  2.480180e+01    7.837298e-01
  2.491293e+01    7.830324e-01
  2.502406e+01    7.865865e-01
  2.513519e+01    7.956304e-01
  2.524632e+01    8.664292e-01
  2.535745e+01    8.789310e-01
  2.546858e+01    9.436567e-01
  2.557971e+01    1.056853e+00
  2.569083e+01    1.370605e+00
  2.580196e+01    2.412533e+00
  2.591309e+01    6.046736e+00
  2.602422e+01    7.205163e+00
  2.613535e+01    2.662969e+00
  2.624648e+01    1.462528e+00
  2.635761e+01    1.097802e+00
  2.646874e+01    9.920233e-01
  2.657987e+01    9.206357e-01
  2.669100e+01    9.027961e-01
  2.680212e+01    9.010966e-01
  2.691325e+01    9.115632e-01
  2.702438e+01    1.031157e+00
  2.713551e+01    1.532241e+00
  2.724664e+01    2.413878e+00
  2.735777e+01    1.459820e+00
  2.746890e+01    9.816854e-01
  2.758003e+01    8.690485e-01
  2.769116e+01    8.343832e-01
  2.780229e+01    8.296968e-01
  2.791342e+01    7.971263e-01
  2.802454e+01    7.964064e-01
  2.813567e+01    7.757054e-01
  2.824680e+01    7.790142e-01
  2.835793e+01    7.822175e-01
  2.846906e+01    7.476758e-01
  2.858019e+01    7.355304e-01
  2.869132e+01    7.457013e-01
  2.880245e+01    7.197413e-01
  2.891358e+01    7.099130e-01
  2.902471e+01    7.313733e-01
  2.913583e+01    7.198483e-01
  2.924696e+01    7.007405e-01
  2.935809e+01    7.224722e-01
  2.946922e+01    7.112804e-01
  2.958035e+01    7.156021e-01
  2.969148e+01    7.096783e-01
  2.980261e+01    6.866179e-01
  2.991374e+01    7.133039e-01
  3.002487e+01    7.348613e-01
  3.013600e+01    7.232261e-01
  3.024712e+01    6.970844e-01
  3.035825e+01    7.176386e-01
  3.046938e+01    7.233380e-01
  3.058051e+01    7.101550e-01
  3.069164e+01    6.795005e-01
  3.080277e+01    7.052677e-01
  3.091390e+01    7.181630e-01
  3.102503e+01    7.194206e-01
  3.113616e+01    7.111019e-01
  3.124729e+01    7.158835e-01
  3.135841e+01    7.369161e-01
  3.146954e+01    7.538859e-01
  3.158067e+01    7.861360e-01
  3.169180e+01    8.861923e-01
  3.180293e+01    1.292769e+00
  3.191406e+01    2.327838e+00
  3.202519e+01    1.617515e+00
  3.213632e+01    9.907983e-01
  3.224745e+01    7.886826e-01
  3.235858e+01    7.505055e-01
  3.246970e+01    7.359486e-01
  3.254908e+01    7.338158e-01

File: 2024-07-27_002_Ru-CGO-ex_Activtation_ramp_000002_data_000089.dat
# == pyFAI calibration ==
# Distance Sample to Detector: 0.4 m
# PONI: 9.750e-02, 1.135e-01 m
# Rotations: -0.000175 0.000000 -0.000000 rad
#
# == Fit2d calibration ==
# Distance Sample-beamCenter: 400.000 mm
# Center: x=1514.000, y=1300.000 pix
# Tilt: 0.010 deg  TiltPlanRot: 0.010 deg
#
# Detector Detector	 Spline= None	 PixelSize= 7.500e-05, 7.500e-05 m
#    Detector has a mask: False
#    Detector has a dark current: False
#    detector has a flat field: False
#
# Wavelength: 6.888e-11 m
# Mask applied: user provided
# Dark current applied: False
# Flat field applied: False
# Polarization factor: 0.99
# Normalization factor: 1.0
# --> /home/myspot/data/2024_07_Rosario/Ru-CGO-ex/2024-07-27_002_Ru-CGO-ex_Activtation_ramp_000002_data_000089.dat
#       q_nm^-1             I
  2.003187e-02    0.000000e+00
  1.311609e-01    1.689322e-02
  2.422899e-01    4.227458e-02
  3.534189e-01    4.429702e-02
  4.645479e-01    3.492605e-02
  5.756770e-01    6.331811e-02
  6.868060e-01    5.459943e-02
  7.979350e-01    1.614953e-01
  9.090640e-01    5.920224e-01
  1.020193e+00    9.017981e-01
  1.131322e+00    1.463256e+00
  1.242451e+00    2.253095e+00
  1.353580e+00    2.623752e+00
  1.464709e+00    2.909094e+00
  1.575838e+00    3.069541e+00
  1.686967e+00    2.818176e+00
  1.798096e+00    2.745287e+00
  1.909225e+00    2.728658e+00
  2.020354e+00    2.757903e+00
  2.131483e+00    2.700151e+00
  2.242612e+00    2.802531e+00
  2.353741e+00    2.723939e+00
  2.464870e+00    2.654803e+00
  2.575999e+00    2.899700e+00
  2.687128e+00    2.679393e+00
  2.798257e+00    2.728687e+00
  2.909386e+00    2.761402e+00
  3.020515e+00    2.736137e+00
  3.131644e+00    2.924140e+00
  3.242773e+00    2.918687e+00
  3.353902e+00    2.923158e+00
  3.465031e+00    2.866051e+00
  3.576160e+00    2.882586e+00
  3.687289e+00    2.981579e+00
  3.798418e+00    2.901275e+00
  3.909547e+00    3.021387e+00
  4.020676e+00    2.981765e+00
  4.131806e+00    2.985911e+00
  4.242935e+00    2.994856e+00
  4.354064e+00    2.999712e+00
  4.465193e+00    3.112276e+00
  4.576322e+00    3.109619e+00
  4.687451e+00    3.060382e+00
  4.798580e+00    2.948700e+00
  4.909709e+00    3.038209e+00
  5.020838e+00    3.040726e+00
  5.131967e+00    3.150149e+00
  5.243096e+00    3.055649e+00
  5.354225e+00    3.112739e+00
  5.465354e+00    2.983888e+00
  5.576483e+00    3.084603e+00
  5.687612e+00    3.107994e+00
  5.798741e+00    2.978089e+00
  5.909870e+00    3.006664e+00
  6.020999e+00    2.949530e+00
  6.132128e+00    3.006139e+00
  6.243257e+00    2.953230e+00
  6.354386e+00    2.959255e+00
  6.465515e+00    3.001791e+00
  6.576644e+00    2.970431e+00
  6.687773e+00    2.974345e+00
  6.798902e+00    3.034843e+00
  6.910031e+00    2.945282e+00
  7.021160e+00    2.950774e+00
  7.132289e+00    2.965201e+00
  7.243418e+00    3.024593e+00
  7.354547e+00    2.941742e+00
  7.465676e+00    2.952389e+00
  7.576805e+00    2.889068e+00
  7.687934e+00    2.875711e+00
  7.799063e+00    2.892559e+00
  7.910192e+00    2.863652e+00
  8.021321e+00    2.889821e+00
  8.132450e+00    2.858219e+00
  8.243579e+00    2.962677e+00
  8.354708e+00    2.873213e+00
  8.465837e+00    2.888946e+00
  8.576966e+00    2.770537e+00
  8.688095e+00    2.825885e+00
  8.799224e+00    2.809001e+00
  8.910353e+00    2.819723e+00
  9.021482e+00    2.744568e+00
  9.132611e+00    2.715691e+00
  9.243740e+00    2.832031e+00
  9.354869e+00    2.710558e+00
  9.465998e+00    2.697971e+00
  9.577127e+00    2.690309e+00
  9.688256e+00    2.725210e+00
  9.799385e+00    2.686645e+00
  9.910514e+00    2.677638e+00
  1.002164e+01    2.629958e+00
  1.013277e+01    2.609893e+00
  1.024390e+01    2.572809e+00
  1.035503e+01    2.598567e+00
  1.046616e+01    2.544369e+00
  1.057729e+01    2.553989e+00
  1.068842e+01    2.497750e+00
  1.079955e+01    2.532264e+00
  1.091068e+01    2.462935e+00
  1.102180e+01    2.448215e+00
  1.113293e+01    2.472403e+00
  1.124406e+01    2.386602e+00
  1.135519e+01    2.367564e+00
  1.146632e+01    2.381222e+00
  1.157745e+01    2.350339e+00
  1.168858e+01    2.364834e+00
  1.179971e+01    2.345974e+00
  1.191084e+01    2.334668e+00
  1.202197e+01    2.294056e+00
  1.213309e+01    2.335497e+00
  1.224422e+01    2.298014e+00
  1.235535e+01    2.266693e+00
  1.246648e+01    2.305772e+00
  1.257761e+01    2.297691e+00
  1.268874e+01    2.351969e+00
  1.279987e+01    2.612396e+00
  1.291100e+01    3.267370e+00
  1.302213e+01    5.974564e+00
  1.313326e+01    1.480250e+01
  1.324438e+01    1.340100e+01
  1.335551e+01    4.628461e+00
  1.346664e+01    2.935162e+00
  1.357777e+01    2.447417e+00
  1.368890e+01    2.299686e+00
  1.380003e+01    2.172182e+00
  1.391116e+01    2.089842e+00
  1.402229e+01    2.048731e+00
  1.413342e+01    2.011355e+00
  1.424455e+01    1.982726e+00
  1.435568e+01    1.955110e+00
  1.446680e+01    1.923270e+00
  1.457793e+01    1.883494e+00
  1.468906e+01    1.879039e+00
  1.480019e+01    1.897051e+00
  1.491132e+01    1.911140e+00
  1.502245e+01    2.180292e+00
  1.513358e+01    3.298856e+00
  1.524471e+01    5.792331e+00
  1.535584e+01    4.243279e+00
  1.546697e+01    2.282466e+00
  1.557809e+01    1.886615e+00
  1.568922e+01    1.755099e+00
  1.580035e+01    1.683009e+00
  1.591148e+01    1.625186e+00
  1.602261e+01    1.609993e+00
  1.613374e+01    1.554814e+00
  1.624487e+01    1.532717e+00
  1.635600e+01    1.545947e+00
  1.646713e+01    1.471306e+00
  1.657826e+01    1.477317e+00
  1.668938e+01    1.479764e+00
  1.680051e+01    1.430631e+00
  1.691164e+01    1.447094e+00
  1.702277e+01    1.402966e+00
  1.713390e+01    1.390545e+00
  1.724503e+01    1.406380e+00
  1.735616e+01    1.363602e+00
  1.746729e+01    1.332366e+00
  1.757842e+01    1.352003e+00
  1.768955e+01    1.318645e+00
  1.780067e+01    1.298542e+00
  1.791180e+01    1.284712e+00
  1.802293e+01    1.279639e+00
  1.813406e+01    1.278041e+00
  1.824519e+01    1.273408e+00
  1.835632e+01    1.238041e+00
  1.846745e+01    1.230362e+00
  1.857858e+01    1.215870e+00
  1.868971e+01    1.234434e+00
  1.880084e+01    1.178243e+00
  1.891196e+01    1.186425e+00
  1.902309e+01    1.190999e+00
  1.913422e+01    1.179630e+00
  1.924535e+01    1.154132e+00
  1.935648e+01    1.152692e+00
  1.946761e+01    1.145726e+00
  1.957874e+01    1.136438e+00
  1.968987e+01    1.106242e+00
  1.980100e+01    1.107812e+00
  1.991213e+01    1.101893e+00
  2.002325e+01    1.109973e+00
  2.013438e+01    1.099332e+00
  2.024551e+01    1.087866e+00
  2.035664e+01    1.100656e+00
  2.046777e+01    1.063815e+00
  2.057890e+01    1.072615e+00
  2.069003e+01    1.091009e+00
  2.080116e+01    1.067695e+00
  2.091229e+01    1.066727e+00
  2.102342e+01    1.070240e+00
  2.113455e+01    1.085232e+00
  2.124567e+01    1.074392e+00
  2.135680e+01    1.097948e+00
  2.146793e+01    1.247252e+00
  2.157906e+01    1.442458e+00
  2.169019e+01    2.230390e+00
  2.180132e+01    5.206512e+00
  2.191245e+01    9.897504e+00
  2.202358e+01    4.554318e+00
  2.213471e+01    1.968999e+00
  2.224584e+01    1.345555e+00
  2.235696e+01    1.132272e+00
  2.246809e+01    1.045003e+00
  2.257922e+01    1.003723e+00
  2.269035e+01    9.480461e-01
  2.280148e+01    9.331158e-01
  2.291261e+01    9.046267e-01
  2.302374e+01    8.844411e-01
  2.313487e+01    8.631576e-01
  2.324600e+01    8.531236e-01
  2.335713e+01    8.653534e-01
  2.346825e+01    8.555051e-01
  2.357938e+01    8.313975e-01
  2.369051e+01    8.212267e-01
  2.380164e+01    8.137681e-01
  2.391277e+01    7.941909e-01
  2.402390e+01    7.962063e-01
  2.413503e+01    7.576497e-01
  2.424616e+01    7.845582e-01
  2.435729e+01    7.782954e-01
  2.446842e+01    7.629901e-01
  2.457954e+01    7.722238e-01
  2.469067e+01    7.982816e-01
  2.480180e+01    7.776556e-01
  2.491293e+01    7.893344e-01
  2.502406e+01    7.843860e-01
  2.513519e+01    8.139999e-01
  2.524632e+01    8.404239e-01
  2.535745e+01    8.537298e-01
  2.546858e+01    9.694289e-01
  2.557971e+01    1.080479e+00
  2.569083e+01    1.353238e+00
  2.580196e+01    2.459685e+00
  2.591309e+01    6.094121e+00
  2.602422e+01    7.179575e+00
  2.613535e+01    2.597571e+00
  2.624648e+01    1.397146e+00
  2.635761e+01    1.100983e+00
  2.646874e+01    9.764499e-01
  2.657987e+01    9.111044e-01
  2.669100e+01    8.791311e-01
  2.680212e+01    8.826555e-01
  2.691325e+01    9.109699e-01
  2.702438e+01    1.022685e+00
  2.713551e+01    1.560525e+00
  2.724664e+01    2.377614e+00
  2.735777e+01    1.441067e+00
  2.746890e+01    9.883714e-01
  2.758003e+01    8.811882e-01
  2.769116e+01    8.231154e-01
  2.780229e+01    8.432636e-01
  2.791342e+01    8.083009e-01
  2.802454e+01    7.802643e-01
  2.813567e+01    7.694384e-01
  2.824680e+01    7.747671e-01
  2.835793e+01    7.525144e-01
  2.846906e+01    7.701628e-01
  2.858019e+01    7.554384e-01
  2.869132e+01    7.525514e-01
  2.880245e+01    7.287521e-01
  2.891358e+01    7.381983e-01
  2.902471e+01    7.171280e-01
  2.913583e+01    7.362078e-01
  2.924696e+01    7.208059e-01
  2.935809e+01    7.365463e-01
  2.946922e+01    7.245921e-01
  2.958035e+01    7.271650e-01
  2.969148e+01    7.164875e-01
  2.980261e+01    7.128016e-01
  2.991374e+01    6.989346e-01
  3.002487e+01    7.227504e-01
  3.013600e+01    7.263701e-01
  3.024712e+01    6.903341e-01
  3.035825e+01    6.997965e-01
  3.046938e+01    7.041600e-01
  3.058051e+01    7.034700e-01
  3.069164e+01    7.062523e-01
  3.080277e+01    6.853961e-01
  3.091390e+01    6.992174e-01
  3.102503e+01    7.130506e-01
  3.113616e+01    7.153823e-01
  3.124729e+01    7.110852e-01
  3.135841e+01    7.229387e-01
  3.146954e+01    7.558663e-01
  3.158067e+01    7.768867e-01
  3.169180e+01    9.157702e-01
  3.180293e+01    1.293224e+00
  3.191406e+01    2.294346e+00
  3.202519e+01    1.639226e+00
  3.213632e+01    9.619004e-01
  3.224745e+01    7.939943e-01
  3.235858e+01    7.552516e-01
  3.246970e+01    7.113561e-01
  3.254908e+01    7.110068e-01