Folder: myspot_2024_07/XRD (part 24)

File: 2024-07-27_002_Ru-CGO-ex_Activtation_ramp_000002_data_000099.dat
# == pyFAI calibration ==
# Distance Sample to Detector: 0.4 m
# PONI: 9.750e-02, 1.135e-01 m
# Rotations: -0.000175 0.000000 -0.000000 rad
#
# == Fit2d calibration ==
# Distance Sample-beamCenter: 400.000 mm
# Center: x=1514.000, y=1300.000 pix
# Tilt: 0.010 deg  TiltPlanRot: 0.010 deg
#
# Detector Detector	 Spline= None	 PixelSize= 7.500e-05, 7.500e-05 m
#    Detector has a mask: False
#    Detector has a dark current: False
#    detector has a flat field: False
#
# Wavelength: 6.888e-11 m
# Mask applied: user provided
# Dark current applied: False
# Flat field applied: False
# Polarization factor: 0.99
# Normalization factor: 1.0
# --> /home/myspot/data/2024_07_Rosario/Ru-CGO-ex/2024-07-27_002_Ru-CGO-ex_Activtation_ramp_000002_data_000099.dat
#       q_nm^-1             I
  2.003187e-02    0.000000e+00
  1.311609e-01    4.306189e-02
  2.422899e-01    4.695839e-02
  3.534189e-01    5.626320e-02
  4.645479e-01    2.318390e-02
  5.756770e-01    4.362395e-02
  6.868060e-01    3.476420e-02
  7.979350e-01    1.295483e-01
  9.090640e-01    5.661064e-01
  1.020193e+00    1.061658e+00
  1.131322e+00    1.312946e+00
  1.242451e+00    2.216262e+00
  1.353580e+00    2.527597e+00
  1.464709e+00    2.638003e+00
  1.575838e+00    2.892064e+00
  1.686967e+00    2.993544e+00
  1.798096e+00    2.959421e+00
  1.909225e+00    2.765600e+00
  2.020354e+00    2.706697e+00
  2.131483e+00    2.762392e+00
  2.242612e+00    2.742872e+00
  2.353741e+00    2.810724e+00
  2.464870e+00    2.756080e+00
  2.575999e+00    2.755389e+00
  2.687128e+00    2.765866e+00
  2.798257e+00    2.830741e+00
  2.909386e+00    2.913723e+00
  3.020515e+00    2.770143e+00
  3.131644e+00    2.808583e+00
  3.242773e+00    2.898871e+00
  3.353902e+00    2.919845e+00
  3.465031e+00    2.964193e+00
  3.576160e+00    2.997062e+00
  3.687289e+00    2.977247e+00
  3.798418e+00    3.026379e+00
  3.909547e+00    3.001480e+00
  4.020676e+00    2.870907e+00
  4.131806e+00    2.999735e+00
  4.242935e+00    2.986430e+00
  4.354064e+00    2.947626e+00
  4.465193e+00    2.993497e+00
  4.576322e+00    3.026808e+00
  4.687451e+00    3.039116e+00
  4.798580e+00    3.033965e+00
  4.909709e+00    3.021833e+00
  5.020838e+00    3.050160e+00
  5.131967e+00    3.109796e+00
  5.243096e+00    3.025350e+00
  5.354225e+00    3.146414e+00
  5.465354e+00    3.045491e+00
  5.576483e+00    3.035424e+00
  5.687612e+00    3.029897e+00
  5.798741e+00    2.955195e+00
  5.909870e+00    3.020730e+00
  6.020999e+00    2.973565e+00
  6.132128e+00    3.013468e+00
  6.243257e+00    3.052214e+00
  6.354386e+00    3.120375e+00
  6.465515e+00    2.994807e+00
  6.576644e+00    2.997267e+00
  6.687773e+00    2.977768e+00
  6.798902e+00    2.990272e+00
  6.910031e+00    2.996010e+00
  7.021160e+00    2.972971e+00
  7.132289e+00    3.015668e+00
  7.243418e+00    2.972655e+00
  7.354547e+00    2.944121e+00
  7.465676e+00    2.948031e+00
  7.576805e+00    2.962298e+00
  7.687934e+00    2.963802e+00
  7.799063e+00    2.869758e+00
  7.910192e+00    2.885881e+00
  8.021321e+00    2.856997e+00
  8.132450e+00    2.921507e+00
  8.243579e+00    2.970030e+00
  8.354708e+00    2.879432e+00
  8.465837e+00    2.804060e+00
  8.576966e+00    2.832733e+00
  8.688095e+00    2.848180e+00
  8.799224e+00    2.856554e+00
  8.910353e+00    2.693493e+00
  9.021482e+00    2.735271e+00
  9.132611e+00    2.822101e+00
  9.243740e+00    2.772969e+00
  9.354869e+00    2.768463e+00
  9.465998e+00    2.691487e+00
  9.577127e+00    2.712042e+00
  9.688256e+00    2.698326e+00
  9.799385e+00    2.706585e+00
  9.910514e+00    2.637777e+00
  1.002164e+01    2.629345e+00
  1.013277e+01    2.659698e+00
  1.024390e+01    2.587309e+00
  1.035503e+01    2.633369e+00
  1.046616e+01    2.536129e+00
  1.057729e+01    2.502876e+00
  1.068842e+01    2.530632e+00
  1.079955e+01    2.522858e+00
  1.091068e+01    2.468698e+00
  1.102180e+01    2.459939e+00
  1.113293e+01    2.440825e+00
  1.124406e+01    2.404312e+00
  1.135519e+01    2.434151e+00
  1.146632e+01    2.370478e+00
  1.157745e+01    2.330534e+00
  1.168858e+01    2.329191e+00
  1.179971e+01    2.349542e+00
  1.191084e+01    2.299597e+00
  1.202197e+01    2.313555e+00
  1.213309e+01    2.317505e+00
  1.224422e+01    2.266235e+00
  1.235535e+01    2.298542e+00
  1.246648e+01    2.331707e+00
  1.257761e+01    2.349348e+00
  1.268874e+01    2.401651e+00
  1.279987e+01    2.621961e+00
  1.291100e+01    3.282976e+00
  1.302213e+01    6.056840e+00
  1.313326e+01    1.471552e+01
  1.324438e+01    1.286744e+01
  1.335551e+01    4.562330e+00
  1.346664e+01    2.893774e+00
  1.357777e+01    2.441880e+00
  1.368890e+01    2.277108e+00
  1.380003e+01    2.134152e+00
  1.391116e+01    2.071059e+00
  1.402229e+01    2.079540e+00
  1.413342e+01    1.956429e+00
  1.424455e+01    1.957859e+00
  1.435568e+01    1.900542e+00
  1.446680e+01    1.924700e+00
  1.457793e+01    1.924217e+00
  1.468906e+01    1.889598e+00
  1.480019e+01    1.892482e+00
  1.491132e+01    1.949287e+00
  1.502245e+01    2.173748e+00
  1.513358e+01    3.371442e+00
  1.524471e+01    5.797985e+00
  1.535584e+01    4.130552e+00
  1.546697e+01    2.305563e+00
  1.557809e+01    1.868258e+00
  1.568922e+01    1.719957e+00
  1.580035e+01    1.710445e+00
  1.591148e+01    1.640039e+00
  1.602261e+01    1.625896e+00
  1.613374e+01    1.598135e+00
  1.624487e+01    1.528957e+00
  1.635600e+01    1.495608e+00
  1.646713e+01    1.505730e+00
  1.657826e+01    1.490833e+00
  1.668938e+01    1.483495e+00
  1.680051e+01    1.463428e+00
  1.691164e+01    1.462572e+00
  1.702277e+01    1.431816e+00
  1.713390e+01    1.399861e+00
  1.724503e+01    1.386431e+00
  1.735616e+01    1.362662e+00
  1.746729e+01    1.358994e+00
  1.757842e+01    1.347233e+00
  1.768955e+01    1.336753e+00
  1.780067e+01    1.337891e+00
  1.791180e+01    1.285621e+00
  1.802293e+01    1.269764e+00
  1.813406e+01    1.275090e+00
  1.824519e+01    1.262536e+00
  1.835632e+01    1.267442e+00
  1.846745e+01    1.264102e+00
  1.857858e+01    1.212514e+00
  1.868971e+01    1.232680e+00
  1.880084e+01    1.218222e+00
  1.891196e+01    1.199294e+00
  1.902309e+01    1.195115e+00
  1.913422e+01    1.175164e+00
  1.924535e+01    1.174942e+00
  1.935648e+01    1.151463e+00
  1.946761e+01    1.151631e+00
  1.957874e+01    1.153685e+00
  1.968987e+01    1.159448e+00
  1.980100e+01    1.133753e+00
  1.991213e+01    1.144014e+00
  2.002325e+01    1.101632e+00
  2.013438e+01    1.101464e+00
  2.024551e+01    1.095345e+00
  2.035664e+01    1.070769e+00
  2.046777e+01    1.080374e+00
  2.057890e+01    1.071149e+00
  2.069003e+01    1.079509e+00
  2.080116e+01    1.079457e+00
  2.091229e+01    1.068889e+00
  2.102342e+01    1.059795e+00
  2.113455e+01    1.059462e+00
  2.124567e+01    1.093792e+00
  2.135680e+01    1.138707e+00
  2.146793e+01    1.235636e+00
  2.157906e+01    1.466979e+00
  2.169019e+01    2.219497e+00
  2.180132e+01    5.301560e+00
  2.191245e+01    9.792923e+00
  2.202358e+01    4.379349e+00
  2.213471e+01    1.941384e+00
  2.224584e+01    1.328215e+00
  2.235696e+01    1.129656e+00
  2.246809e+01    1.066020e+00
  2.257922e+01    9.911976e-01
  2.269035e+01    9.483426e-01
  2.280148e+01    9.325866e-01
  2.291261e+01    9.133314e-01
  2.302374e+01    8.970576e-01
  2.313487e+01    8.751901e-01
  2.324600e+01    8.680423e-01
  2.335713e+01    8.498343e-01
  2.346825e+01    8.604480e-01
  2.357938e+01    8.354443e-01
  2.369051e+01    8.257997e-01
  2.380164e+01    8.317050e-01
  2.391277e+01    7.873489e-01
  2.402390e+01    7.798629e-01
  2.413503e+01    7.800053e-01
  2.424616e+01    7.632425e-01
  2.435729e+01    7.928277e-01
  2.446842e+01    7.736267e-01
  2.457954e+01    7.964204e-01
  2.469067e+01    7.759002e-01
  2.480180e+01    7.880958e-01
  2.491293e+01    7.892904e-01
  2.502406e+01    8.127610e-01
  2.513519e+01    8.085393e-01
  2.524632e+01    8.526022e-01
  2.535745e+01    8.714845e-01
  2.546858e+01    9.336917e-01
  2.557971e+01    1.054070e+00
  2.569083e+01    1.375607e+00
  2.580196e+01    2.463740e+00
  2.591309e+01    6.147014e+00
  2.602422e+01    6.967310e+00
  2.613535e+01    2.587225e+00
  2.624648e+01    1.404115e+00
  2.635761e+01    1.090306e+00
  2.646874e+01    9.534993e-01
  2.657987e+01    9.177539e-01
  2.669100e+01    8.962235e-01
  2.680212e+01    9.124907e-01
  2.691325e+01    9.227635e-01
  2.702438e+01    1.056087e+00
  2.713551e+01    1.589170e+00
  2.724664e+01    2.383753e+00
  2.735777e+01    1.407426e+00
  2.746890e+01    9.805024e-01
  2.758003e+01    8.762436e-01
  2.769116e+01    8.225405e-01
  2.780229e+01    8.172176e-01
  2.791342e+01    8.042867e-01
  2.802454e+01    7.850575e-01
  2.813567e+01    7.487513e-01
  2.824680e+01    7.690389e-01
  2.835793e+01    7.487489e-01
  2.846906e+01    7.553176e-01
  2.858019e+01    7.589960e-01
  2.869132e+01    7.650132e-01
  2.880245e+01    7.432349e-01
  2.891358e+01    7.308345e-01
  2.902471e+01    7.520939e-01
  2.913583e+01    7.381936e-01
  2.924696e+01    7.421030e-01
  2.935809e+01    7.104625e-01
  2.946922e+01    7.394599e-01
  2.958035e+01    7.224356e-01
  2.969148e+01    7.094105e-01
  2.980261e+01    7.025883e-01
  2.991374e+01    7.339370e-01
  3.002487e+01    7.272812e-01
  3.013600e+01    7.111748e-01
  3.024712e+01    7.062272e-01
  3.035825e+01    7.243142e-01
  3.046938e+01    7.150017e-01
  3.058051e+01    6.844416e-01
  3.069164e+01    7.015659e-01
  3.080277e+01    6.929025e-01
  3.091390e+01    7.225149e-01
  3.102503e+01    7.141930e-01
  3.113616e+01    6.925863e-01
  3.124729e+01    7.333845e-01
  3.135841e+01    7.234579e-01
  3.146954e+01    7.895285e-01
  3.158067e+01    7.924215e-01
  3.169180e+01    8.948733e-01
  3.180293e+01    1.345970e+00
  3.191406e+01    2.335801e+00
  3.202519e+01    1.575982e+00
  3.213632e+01    9.776635e-01
  3.224745e+01    8.200750e-01
  3.235858e+01    7.573356e-01
  3.246970e+01    7.752866e-01
  3.254908e+01    7.126132e-01

File: 2024-07-27_002_Ru-CGO-ex_Activtation_ramp_000002_data_000101.dat
# == pyFAI calibration ==
# Distance Sample to Detector: 0.4 m
# PONI: 9.750e-02, 1.135e-01 m
# Rotations: -0.000175 0.000000 -0.000000 rad
#
# == Fit2d calibration ==
# Distance Sample-beamCenter: 400.000 mm
# Center: x=1514.000, y=1300.000 pix
# Tilt: 0.010 deg  TiltPlanRot: 0.010 deg
#
# Detector Detector	 Spline= None	 PixelSize= 7.500e-05, 7.500e-05 m
#    Detector has a mask: False
#    Detector has a dark current: False
#    detector has a flat field: False
#
# Wavelength: 6.888e-11 m
# Mask applied: user provided
# Dark current applied: False
# Flat field applied: False
# Polarization factor: 0.99
# Normalization factor: 1.0
# --> /home/myspot/data/2024_07_Rosario/Ru-CGO-ex/2024-07-27_002_Ru-CGO-ex_Activtation_ramp_000002_data_000101.dat
#       q_nm^-1             I
  2.003187e-02    0.000000e+00
  1.311609e-01    3.844428e-02
  2.422899e-01    2.640141e-02
  3.534189e-01    3.320194e-02
  4.645479e-01    2.999646e-02
  5.756770e-01    2.398992e-02
  6.868060e-01    1.978184e-02
  7.979350e-01    1.277284e-01
  9.090640e-01    5.219857e-01
  1.020193e+00    1.091806e+00
  1.131322e+00    1.479071e+00
  1.242451e+00    2.222839e+00
  1.353580e+00    2.377706e+00
  1.464709e+00    2.583318e+00
  1.575838e+00    2.905956e+00
  1.686967e+00    2.757873e+00
  1.798096e+00    2.797993e+00
  1.909225e+00    2.715656e+00
  2.020354e+00    2.869884e+00
  2.131483e+00    2.732949e+00
  2.242612e+00    2.767373e+00
  2.353741e+00    2.780775e+00
  2.464870e+00    2.746885e+00
  2.575999e+00    2.935804e+00
  2.687128e+00    2.849330e+00
  2.798257e+00    2.791531e+00
  2.909386e+00    2.860465e+00
  3.020515e+00    2.853179e+00
  3.131644e+00    2.812367e+00
  3.242773e+00    2.867163e+00
  3.353902e+00    2.935279e+00
  3.465031e+00    2.893387e+00
  3.576160e+00    2.936705e+00
  3.687289e+00    2.935949e+00
  3.798418e+00    2.984032e+00
  3.909547e+00    2.930415e+00
  4.020676e+00    2.939744e+00
  4.131806e+00    3.038194e+00
  4.242935e+00    3.076119e+00
  4.354064e+00    3.080767e+00
  4.465193e+00    3.106412e+00
  4.576322e+00    3.083616e+00
  4.687451e+00    3.078947e+00
  4.798580e+00    3.058742e+00
  4.909709e+00    3.050015e+00
  5.020838e+00    3.095344e+00
  5.131967e+00    3.091746e+00
  5.243096e+00    3.007050e+00
  5.354225e+00    3.036336e+00
  5.465354e+00    3.071979e+00
  5.576483e+00    3.088846e+00
  5.687612e+00    2.982395e+00
  5.798741e+00    3.009700e+00
  5.909870e+00    2.983909e+00
  6.020999e+00    2.995433e+00
  6.132128e+00    2.975802e+00
  6.243257e+00    2.946286e+00
  6.354386e+00    2.903704e+00
  6.465515e+00    2.944198e+00
  6.576644e+00    3.025768e+00
  6.687773e+00    2.962237e+00
  6.798902e+00    2.982285e+00
  6.910031e+00    2.992213e+00
  7.021160e+00    2.963822e+00
  7.132289e+00    2.967614e+00
  7.243418e+00    2.959076e+00
  7.354547e+00    2.957647e+00
  7.465676e+00    2.903743e+00
  7.576805e+00    2.911300e+00
  7.687934e+00    2.853070e+00
  7.799063e+00    2.865962e+00
  7.910192e+00    2.915492e+00
  8.021321e+00    2.901151e+00
  8.132450e+00    2.901038e+00
  8.243579e+00    2.936941e+00
  8.354708e+00    2.819650e+00
  8.465837e+00    2.834395e+00
  8.576966e+00    2.821573e+00
  8.688095e+00    2.849791e+00
  8.799224e+00    2.763985e+00
  8.910353e+00    2.799251e+00
  9.021482e+00    2.763640e+00
  9.132611e+00    2.792043e+00
  9.243740e+00    2.731877e+00
  9.354869e+00    2.718107e+00
  9.465998e+00    2.687560e+00
  9.577127e+00    2.726566e+00
  9.688256e+00    2.681450e+00
  9.799385e+00    2.662894e+00
  9.910514e+00    2.619649e+00
  1.002164e+01    2.603252e+00
  1.013277e+01    2.674688e+00
  1.024390e+01    2.613820e+00
  1.035503e+01    2.609053e+00
  1.046616e+01    2.604545e+00
  1.057729e+01    2.572889e+00
  1.068842e+01    2.504612e+00
  1.079955e+01    2.512846e+00
  1.091068e+01    2.508857e+00
  1.102180e+01    2.430874e+00
  1.113293e+01    2.411623e+00
  1.124406e+01    2.436170e+00
  1.135519e+01    2.421191e+00
  1.146632e+01    2.367934e+00
  1.157745e+01    2.360267e+00
  1.168858e+01    2.342710e+00
  1.179971e+01    2.288823e+00
  1.191084e+01    2.359710e+00
  1.202197e+01    2.301568e+00
  1.213309e+01    2.270594e+00
  1.224422e+01    2.288799e+00
  1.235535e+01    2.297116e+00
  1.246648e+01    2.339223e+00
  1.257761e+01    2.320690e+00
  1.268874e+01    2.395320e+00
  1.279987e+01    2.610595e+00
  1.291100e+01    3.267256e+00
  1.302213e+01    5.987969e+00
  1.313326e+01    1.462196e+01
  1.324438e+01    1.310785e+01
  1.335551e+01    4.657630e+00
  1.346664e+01    2.923258e+00
  1.357777e+01    2.487963e+00
  1.368890e+01    2.239515e+00
  1.380003e+01    2.138191e+00
  1.391116e+01    2.009753e+00
  1.402229e+01    2.105364e+00
  1.413342e+01    1.976147e+00
  1.424455e+01    1.951655e+00
  1.435568e+01    1.938967e+00
  1.446680e+01    1.901658e+00
  1.457793e+01    1.893766e+00
  1.468906e+01    1.884697e+00
  1.480019e+01    1.919769e+00
  1.491132e+01    1.939195e+00
  1.502245e+01    2.153732e+00
  1.513358e+01    3.279463e+00
  1.524471e+01    5.791310e+00
  1.535584e+01    4.137566e+00
  1.546697e+01    2.266783e+00
  1.557809e+01    1.856813e+00
  1.568922e+01    1.786274e+00
  1.580035e+01    1.628956e+00
  1.591148e+01    1.634630e+00
  1.602261e+01    1.597416e+00
  1.613374e+01    1.569486e+00
  1.624487e+01    1.590209e+00
  1.635600e+01    1.499151e+00
  1.646713e+01    1.497530e+00
  1.657826e+01    1.459881e+00
  1.668938e+01    1.474234e+00
  1.680051e+01    1.451526e+00
  1.691164e+01    1.436238e+00
  1.702277e+01    1.429957e+00
  1.713390e+01    1.389106e+00
  1.724503e+01    1.355519e+00
  1.735616e+01    1.348338e+00
  1.746729e+01    1.373122e+00
  1.757842e+01    1.356941e+00
  1.768955e+01    1.311071e+00
  1.780067e+01    1.326576e+00
  1.791180e+01    1.277255e+00
  1.802293e+01    1.288800e+00
  1.813406e+01    1.292200e+00
  1.824519e+01    1.269995e+00
  1.835632e+01    1.253980e+00
  1.846745e+01    1.235166e+00
  1.857858e+01    1.231756e+00
  1.868971e+01    1.228397e+00
  1.880084e+01    1.187828e+00
  1.891196e+01    1.201219e+00
  1.902309e+01    1.207258e+00
  1.913422e+01    1.173522e+00
  1.924535e+01    1.207430e+00
  1.935648e+01    1.158751e+00
  1.946761e+01    1.160399e+00
  1.957874e+01    1.118628e+00
  1.968987e+01    1.123766e+00
  1.980100e+01    1.129511e+00
  1.991213e+01    1.127735e+00
  2.002325e+01    1.110236e+00
  2.013438e+01    1.084734e+00
  2.024551e+01    1.082781e+00
  2.035664e+01    1.100875e+00
  2.046777e+01    1.086809e+00
  2.057890e+01    1.107756e+00
  2.069003e+01    1.066191e+00
  2.080116e+01    1.046914e+00
  2.091229e+01    1.078296e+00
  2.102342e+01    1.067835e+00
  2.113455e+01    1.062259e+00
  2.124567e+01    1.089301e+00
  2.135680e+01    1.126914e+00
  2.146793e+01    1.241727e+00
  2.157906e+01    1.438582e+00
  2.169019e+01    2.221947e+00
  2.180132e+01    5.249042e+00
  2.191245e+01    9.796676e+00
  2.202358e+01    4.424178e+00
  2.213471e+01    1.931036e+00
  2.224584e+01    1.335927e+00
  2.235696e+01    1.150175e+00
  2.246809e+01    1.058231e+00
  2.257922e+01    9.895557e-01
  2.269035e+01    9.520125e-01
  2.280148e+01    9.242778e-01
  2.291261e+01    8.966981e-01
  2.302374e+01    8.942645e-01
  2.313487e+01    8.708186e-01
  2.324600e+01    8.597460e-01
  2.335713e+01    8.540226e-01
  2.346825e+01    8.445635e-01
  2.357938e+01    8.340732e-01
  2.369051e+01    8.215497e-01
  2.380164e+01    8.145921e-01
  2.391277e+01    7.793720e-01
  2.402390e+01    7.982597e-01
  2.413503e+01    7.486997e-01
  2.424616e+01    7.822626e-01
  2.435729e+01    7.895972e-01
  2.446842e+01    7.754176e-01
  2.457954e+01    7.879134e-01
  2.469067e+01    7.752766e-01
  2.480180e+01    7.975786e-01
  2.491293e+01    7.939378e-01
  2.502406e+01    7.871545e-01
  2.513519e+01    8.174658e-01
  2.524632e+01    8.296607e-01
  2.535745e+01    8.712373e-01
  2.546858e+01    9.133143e-01
  2.557971e+01    1.079887e+00
  2.569083e+01    1.358625e+00
  2.580196e+01    2.456847e+00
  2.591309e+01    6.070296e+00
  2.602422e+01    7.013751e+00
  2.613535e+01    2.632165e+00
  2.624648e+01    1.411497e+00
  2.635761e+01    1.080246e+00
  2.646874e+01    9.639201e-01
  2.657987e+01    9.099214e-01
  2.669100e+01    8.903136e-01
  2.680212e+01    8.851125e-01
  2.691325e+01    9.283655e-01
  2.702438e+01    1.043237e+00
  2.713551e+01    1.537727e+00
  2.724664e+01    2.356955e+00
  2.735777e+01    1.433433e+00
  2.746890e+01    9.961320e-01
  2.758003e+01    8.748501e-01
  2.769116e+01    8.286134e-01
  2.780229e+01    8.139650e-01
  2.791342e+01    7.988834e-01
  2.802454e+01    8.043680e-01
  2.813567e+01    7.642502e-01
  2.824680e+01    7.792418e-01
  2.835793e+01    7.562779e-01
  2.846906e+01    7.611117e-01
  2.858019e+01    7.538728e-01
  2.869132e+01    7.294977e-01
  2.880245e+01    7.317334e-01
  2.891358e+01    7.541831e-01
  2.902471e+01    7.458693e-01
  2.913583e+01    7.379619e-01
  2.924696e+01    7.219352e-01
  2.935809e+01    7.173487e-01
  2.946922e+01    7.119177e-01
  2.958035e+01    7.217788e-01
  2.969148e+01    7.123774e-01
  2.980261e+01    7.038285e-01
  2.991374e+01    7.241691e-01
  3.002487e+01    7.167324e-01
  3.013600e+01    7.203539e-01
  3.024712e+01    7.167280e-01
  3.035825e+01    7.229213e-01
  3.046938e+01    7.187933e-01
  3.058051e+01    7.312670e-01
  3.069164e+01    7.198698e-01
  3.080277e+01    7.125036e-01
  3.091390e+01    7.017682e-01
  3.102503e+01    7.030704e-01
  3.113616e+01    7.343691e-01
  3.124729e+01    7.361912e-01
  3.135841e+01    7.332354e-01
  3.146954e+01    7.469394e-01
  3.158067e+01    7.859537e-01
  3.169180e+01    9.112001e-01
  3.180293e+01    1.274830e+00
  3.191406e+01    2.249570e+00
  3.202519e+01    1.625739e+00
  3.213632e+01    9.769461e-01
  3.224745e+01    7.938914e-01
  3.235858e+01    7.510472e-01
  3.246970e+01    7.400057e-01
  3.254908e+01    7.266414e-01