Folder: myspot_2024_07/XRD (part 25)

File: 2024-07-27_002_Ru-CGO-ex_Activtation_ramp_000002_data_000103.dat
# == pyFAI calibration ==
# Distance Sample to Detector: 0.4 m
# PONI: 9.750e-02, 1.135e-01 m
# Rotations: -0.000175 0.000000 -0.000000 rad
#
# == Fit2d calibration ==
# Distance Sample-beamCenter: 400.000 mm
# Center: x=1514.000, y=1300.000 pix
# Tilt: 0.010 deg  TiltPlanRot: 0.010 deg
#
# Detector Detector	 Spline= None	 PixelSize= 7.500e-05, 7.500e-05 m
#    Detector has a mask: False
#    Detector has a dark current: False
#    detector has a flat field: False
#
# Wavelength: 6.888e-11 m
# Mask applied: user provided
# Dark current applied: False
# Flat field applied: False
# Polarization factor: 0.99
# Normalization factor: 1.0
# --> /home/myspot/data/2024_07_Rosario/Ru-CGO-ex/2024-07-27_002_Ru-CGO-ex_Activtation_ramp_000002_data_000103.dat
#       q_nm^-1             I
  2.003187e-02    7.711996e-02
  1.311609e-01    6.060617e-02
  2.422899e-01    1.787312e-02
  3.534189e-01    6.002995e-02
  4.645479e-01    3.811662e-02
  5.756770e-01    1.143136e-02
  6.868060e-01    7.634580e-03
  7.979350e-01    1.326588e-01
  9.090640e-01    5.382248e-01
  1.020193e+00    1.084674e+00
  1.131322e+00    1.379293e+00
  1.242451e+00    2.186615e+00
  1.353580e+00    2.548005e+00
  1.464709e+00    2.548385e+00
  1.575838e+00    2.838645e+00
  1.686967e+00    2.810010e+00
  1.798096e+00    2.721855e+00
  1.909225e+00    2.690913e+00
  2.020354e+00    2.709335e+00
  2.131483e+00    2.666861e+00
  2.242612e+00    2.701157e+00
  2.353741e+00    2.710966e+00
  2.464870e+00    2.622990e+00
  2.575999e+00    2.848099e+00
  2.687128e+00    2.727080e+00
  2.798257e+00    2.806809e+00
  2.909386e+00    2.838669e+00
  3.020515e+00    2.801432e+00
  3.131644e+00    2.954135e+00
  3.242773e+00    2.870626e+00
  3.353902e+00    2.897945e+00
  3.465031e+00    2.856539e+00
  3.576160e+00    3.003012e+00
  3.687289e+00    2.956429e+00
  3.798418e+00    2.972876e+00
  3.909547e+00    2.943952e+00
  4.020676e+00    3.026858e+00
  4.131806e+00    2.966808e+00
  4.242935e+00    2.937145e+00
  4.354064e+00    3.076444e+00
  4.465193e+00    3.043921e+00
  4.576322e+00    2.987968e+00
  4.687451e+00    2.966789e+00
  4.798580e+00    2.993372e+00
  4.909709e+00    3.094387e+00
  5.020838e+00    3.103723e+00
  5.131967e+00    3.086464e+00
  5.243096e+00    3.086006e+00
  5.354225e+00    3.082269e+00
  5.465354e+00    3.018389e+00
  5.576483e+00    3.050953e+00
  5.687612e+00    2.926955e+00
  5.798741e+00    2.980025e+00
  5.909870e+00    3.045010e+00
  6.020999e+00    2.894091e+00
  6.132128e+00    2.988557e+00
  6.243257e+00    3.004238e+00
  6.354386e+00    3.032062e+00
  6.465515e+00    3.005206e+00
  6.576644e+00    2.981128e+00
  6.687773e+00    2.935338e+00
  6.798902e+00    3.015346e+00
  6.910031e+00    2.999392e+00
  7.021160e+00    3.026610e+00
  7.132289e+00    2.954290e+00
  7.243418e+00    2.869633e+00
  7.354547e+00    2.954715e+00
  7.465676e+00    2.910505e+00
  7.576805e+00    2.913439e+00
  7.687934e+00    2.924722e+00
  7.799063e+00    2.897207e+00
  7.910192e+00    2.852674e+00
  8.021321e+00    2.934063e+00
  8.132450e+00    2.912723e+00
  8.243579e+00    2.955218e+00
  8.354708e+00    2.842245e+00
  8.465837e+00    2.841346e+00
  8.576966e+00    2.835337e+00
  8.688095e+00    2.827960e+00
  8.799224e+00    2.894962e+00
  8.910353e+00    2.763514e+00
  9.021482e+00    2.781672e+00
  9.132611e+00    2.764954e+00
  9.243740e+00    2.791915e+00
  9.354869e+00    2.756787e+00
  9.465998e+00    2.654713e+00
  9.577127e+00    2.725744e+00
  9.688256e+00    2.642118e+00
  9.799385e+00    2.683246e+00
  9.910514e+00    2.645127e+00
  1.002164e+01    2.687959e+00
  1.013277e+01    2.605963e+00
  1.024390e+01    2.662200e+00
  1.035503e+01    2.561405e+00
  1.046616e+01    2.574075e+00
  1.057729e+01    2.538127e+00
  1.068842e+01    2.519855e+00
  1.079955e+01    2.506203e+00
  1.091068e+01    2.490636e+00
  1.102180e+01    2.462753e+00
  1.113293e+01    2.411299e+00
  1.124406e+01    2.404438e+00
  1.135519e+01    2.410469e+00
  1.146632e+01    2.425215e+00
  1.157745e+01    2.343041e+00
  1.168858e+01    2.355063e+00
  1.179971e+01    2.311108e+00
  1.191084e+01    2.283596e+00
  1.202197e+01    2.290802e+00
  1.213309e+01    2.276919e+00
  1.224422e+01    2.270288e+00
  1.235535e+01    2.297468e+00
  1.246648e+01    2.288174e+00
  1.257761e+01    2.391686e+00
  1.268874e+01    2.427866e+00
  1.279987e+01    2.611653e+00
  1.291100e+01    3.251084e+00
  1.302213e+01    5.975844e+00
  1.313326e+01    1.480240e+01
  1.324438e+01    1.287930e+01
  1.335551e+01    4.656452e+00
  1.346664e+01    2.910820e+00
  1.357777e+01    2.414407e+00
  1.368890e+01    2.231441e+00
  1.380003e+01    2.135968e+00
  1.391116e+01    2.048316e+00
  1.402229e+01    2.055533e+00
  1.413342e+01    1.981442e+00
  1.424455e+01    1.959807e+00
  1.435568e+01    1.956877e+00
  1.446680e+01    1.920131e+00
  1.457793e+01    1.878157e+00
  1.468906e+01    1.889679e+00
  1.480019e+01    1.913918e+00
  1.491132e+01    1.965207e+00
  1.502245e+01    2.228014e+00
  1.513358e+01    3.320805e+00
  1.524471e+01    5.749441e+00
  1.535584e+01    4.146441e+00
  1.546697e+01    2.302212e+00
  1.557809e+01    1.915645e+00
  1.568922e+01    1.763542e+00
  1.580035e+01    1.649336e+00
  1.591148e+01    1.599878e+00
  1.602261e+01    1.616906e+00
  1.613374e+01    1.567153e+00
  1.624487e+01    1.581971e+00
  1.635600e+01    1.513491e+00
  1.646713e+01    1.510489e+00
  1.657826e+01    1.509357e+00
  1.668938e+01    1.452706e+00
  1.680051e+01    1.466023e+00
  1.691164e+01    1.440305e+00
  1.702277e+01    1.407020e+00
  1.713390e+01    1.399769e+00
  1.724503e+01    1.369706e+00
  1.735616e+01    1.340109e+00
  1.746729e+01    1.339106e+00
  1.757842e+01    1.346138e+00
  1.768955e+01    1.326978e+00
  1.780067e+01    1.333373e+00
  1.791180e+01    1.284699e+00
  1.802293e+01    1.313395e+00
  1.813406e+01    1.268666e+00
  1.824519e+01    1.258129e+00
  1.835632e+01    1.287740e+00
  1.846745e+01    1.247805e+00
  1.857858e+01    1.239933e+00
  1.868971e+01    1.205893e+00
  1.880084e+01    1.210076e+00
  1.891196e+01    1.187575e+00
  1.902309e+01    1.177285e+00
  1.913422e+01    1.157866e+00
  1.924535e+01    1.187050e+00
  1.935648e+01    1.151091e+00
  1.946761e+01    1.137204e+00
  1.957874e+01    1.122373e+00
  1.968987e+01    1.139958e+00
  1.980100e+01    1.125839e+00
  1.991213e+01    1.114728e+00
  2.002325e+01    1.127465e+00
  2.013438e+01    1.108821e+00
  2.024551e+01    1.073584e+00
  2.035664e+01    1.122455e+00
  2.046777e+01    1.089957e+00
  2.057890e+01    1.088687e+00
  2.069003e+01    1.071795e+00
  2.080116e+01    1.068587e+00
  2.091229e+01    1.063466e+00
  2.102342e+01    1.063545e+00
  2.113455e+01    1.083706e+00
  2.124567e+01    1.112758e+00
  2.135680e+01    1.142870e+00
  2.146793e+01    1.239498e+00
  2.157906e+01    1.473032e+00
  2.169019e+01    2.200742e+00
  2.180132e+01    5.339590e+00
  2.191245e+01    9.843244e+00
  2.202358e+01    4.294209e+00
  2.213471e+01    1.948163e+00
  2.224584e+01    1.353920e+00
  2.235696e+01    1.116575e+00
  2.246809e+01    1.065831e+00
  2.257922e+01    9.922910e-01
  2.269035e+01    9.533509e-01
  2.280148e+01    9.543815e-01
  2.291261e+01    9.085408e-01
  2.302374e+01    8.901433e-01
  2.313487e+01    8.784185e-01
  2.324600e+01    8.722731e-01
  2.335713e+01    8.432166e-01
  2.346825e+01    8.463271e-01
  2.357938e+01    8.495080e-01
  2.369051e+01    8.163425e-01
  2.380164e+01    8.075610e-01
  2.391277e+01    8.083182e-01
  2.402390e+01    7.818789e-01
  2.413503e+01    7.774073e-01
  2.424616e+01    7.900914e-01
  2.435729e+01    7.833537e-01
  2.446842e+01    7.866886e-01
  2.457954e+01    7.716424e-01
  2.469067e+01    7.847904e-01
  2.480180e+01    7.890974e-01
  2.491293e+01    8.061959e-01
  2.502406e+01    7.995743e-01
  2.513519e+01    8.111616e-01
  2.524632e+01    8.502781e-01
  2.535745e+01    8.600159e-01
  2.546858e+01    9.283184e-01
  2.557971e+01    1.064650e+00
  2.569083e+01    1.343880e+00
  2.580196e+01    2.465546e+00
  2.591309e+01    6.061112e+00
  2.602422e+01    6.930813e+00
  2.613535e+01    2.558515e+00
  2.624648e+01    1.433954e+00
  2.635761e+01    1.085849e+00
  2.646874e+01    9.506760e-01
  2.657987e+01    8.950163e-01
  2.669100e+01    8.714900e-01
  2.680212e+01    8.897887e-01
  2.691325e+01    9.208248e-01
  2.702438e+01    1.029200e+00
  2.713551e+01    1.582988e+00
  2.724664e+01    2.350500e+00
  2.735777e+01    1.386875e+00
  2.746890e+01    9.802883e-01
  2.758003e+01    8.762973e-01
  2.769116e+01    7.974101e-01
  2.780229e+01    7.983212e-01
  2.791342e+01    8.198631e-01
  2.802454e+01    7.769541e-01
  2.813567e+01    7.606829e-01
  2.824680e+01    7.748192e-01
  2.835793e+01    7.589247e-01
  2.846906e+01    7.774221e-01
  2.858019e+01    7.401624e-01
  2.869132e+01    7.572757e-01
  2.880245e+01    7.538849e-01
  2.891358e+01    7.325805e-01
  2.902471e+01    7.369738e-01
  2.913583e+01    7.199532e-01
  2.924696e+01    7.405334e-01
  2.935809e+01    7.217336e-01
  2.946922e+01    7.368208e-01
  2.958035e+01    7.174068e-01
  2.969148e+01    7.158253e-01
  2.980261e+01    7.356077e-01
  2.991374e+01    7.082304e-01
  3.002487e+01    7.322779e-01
  3.013600e+01    7.208107e-01
  3.024712e+01    7.151783e-01
  3.035825e+01    7.046123e-01
  3.046938e+01    7.226793e-01
  3.058051e+01    7.075952e-01
  3.069164e+01    7.087005e-01
  3.080277e+01    7.074617e-01
  3.091390e+01    7.163049e-01
  3.102503e+01    6.837735e-01
  3.113616e+01    7.206493e-01
  3.124729e+01    7.166559e-01
  3.135841e+01    7.245725e-01
  3.146954e+01    7.510976e-01
  3.158067e+01    7.899916e-01
  3.169180e+01    9.342878e-01
  3.180293e+01    1.344318e+00
  3.191406e+01    2.295062e+00
  3.202519e+01    1.580534e+00
  3.213632e+01    9.530994e-01
  3.224745e+01    7.735020e-01
  3.235858e+01    7.653190e-01
  3.246970e+01    7.353893e-01
  3.254908e+01    7.199745e-01

File: 2024-07-27_002_Ru-CGO-ex_Activtation_ramp_000002_data_000104.dat
# == pyFAI calibration ==
# Distance Sample to Detector: 0.4 m
# PONI: 9.750e-02, 1.135e-01 m
# Rotations: -0.000175 0.000000 -0.000000 rad
#
# == Fit2d calibration ==
# Distance Sample-beamCenter: 400.000 mm
# Center: x=1514.000, y=1300.000 pix
# Tilt: 0.010 deg  TiltPlanRot: 0.010 deg
#
# Detector Detector	 Spline= None	 PixelSize= 7.500e-05, 7.500e-05 m
#    Detector has a mask: False
#    Detector has a dark current: False
#    detector has a flat field: False
#
# Wavelength: 6.888e-11 m
# Mask applied: user provided
# Dark current applied: False
# Flat field applied: False
# Polarization factor: 0.99
# Normalization factor: 1.0
# --> /home/myspot/data/2024_07_Rosario/Ru-CGO-ex/2024-07-27_002_Ru-CGO-ex_Activtation_ramp_000002_data_000104.dat
#       q_nm^-1             I
  2.003187e-02    0.000000e+00
  1.311609e-01    9.577664e-02
  2.422899e-01    2.806027e-02
  3.534189e-01    6.162198e-02
  4.645479e-01    2.114651e-02
  5.756770e-01    2.568423e-02
  6.868060e-01    4.607815e-02
  7.979350e-01    1.341043e-01
  9.090640e-01    6.427218e-01
  1.020193e+00    1.061154e+00
  1.131322e+00    1.471536e+00
  1.242451e+00    2.193369e+00
  1.353580e+00    2.612856e+00
  1.464709e+00    2.593463e+00
  1.575838e+00    2.879619e+00
  1.686967e+00    2.892098e+00
  1.798096e+00    2.660081e+00
  1.909225e+00    2.745574e+00
  2.020354e+00    2.678946e+00
  2.131483e+00    2.747832e+00
  2.242612e+00    2.748919e+00
  2.353741e+00    2.646867e+00
  2.464870e+00    2.719674e+00
  2.575999e+00    2.826883e+00
  2.687128e+00    2.785098e+00
  2.798257e+00    2.694815e+00
  2.909386e+00    2.791646e+00
  3.020515e+00    2.929750e+00
  3.131644e+00    2.889700e+00
  3.242773e+00    2.904035e+00
  3.353902e+00    2.955781e+00
  3.465031e+00    2.959206e+00
  3.576160e+00    2.811160e+00
  3.687289e+00    2.984275e+00
  3.798418e+00    2.924777e+00
  3.909547e+00    2.948869e+00
  4.020676e+00    2.904906e+00
  4.131806e+00    3.017067e+00
  4.242935e+00    3.012199e+00
  4.354064e+00    3.074724e+00
  4.465193e+00    3.054359e+00
  4.576322e+00    3.054260e+00
  4.687451e+00    3.062500e+00
  4.798580e+00    3.068830e+00
  4.909709e+00    3.088382e+00
  5.020838e+00    2.997921e+00
  5.131967e+00    3.089216e+00
  5.243096e+00    3.054878e+00
  5.354225e+00    3.119033e+00
  5.465354e+00    3.080135e+00
  5.576483e+00    2.977866e+00
  5.687612e+00    3.013947e+00
  5.798741e+00    2.925466e+00
  5.909870e+00    3.025909e+00
  6.020999e+00    2.914844e+00
  6.132128e+00    3.033336e+00
  6.243257e+00    3.036651e+00
  6.354386e+00    2.983134e+00
  6.465515e+00    3.063817e+00
  6.576644e+00    2.982908e+00
  6.687773e+00    2.895700e+00
  6.798902e+00    3.021206e+00
  6.910031e+00    2.943572e+00
  7.021160e+00    2.925289e+00
  7.132289e+00    2.948807e+00
  7.243418e+00    2.888490e+00
  7.354547e+00    2.906396e+00
  7.465676e+00    2.935317e+00
  7.576805e+00    2.891476e+00
  7.687934e+00    2.928328e+00
  7.799063e+00    2.843829e+00
  7.910192e+00    2.867687e+00
  8.021321e+00    2.876994e+00
  8.132450e+00    2.826940e+00
  8.243579e+00    2.933673e+00
  8.354708e+00    2.897050e+00
  8.465837e+00    2.859581e+00
  8.576966e+00    2.810256e+00
  8.688095e+00    2.824903e+00
  8.799224e+00    2.773314e+00
  8.910353e+00    2.796158e+00
  9.021482e+00    2.790933e+00
  9.132611e+00    2.742925e+00
  9.243740e+00    2.748205e+00
  9.354869e+00    2.720209e+00
  9.465998e+00    2.684136e+00
  9.577127e+00    2.719137e+00
  9.688256e+00    2.668561e+00
  9.799385e+00    2.664359e+00
  9.910514e+00    2.644560e+00
  1.002164e+01    2.602279e+00
  1.013277e+01    2.625410e+00
  1.024390e+01    2.572039e+00
  1.035503e+01    2.570495e+00
  1.046616e+01    2.560573e+00
  1.057729e+01    2.569706e+00
  1.068842e+01    2.487314e+00
  1.079955e+01    2.544183e+00
  1.091068e+01    2.476748e+00
  1.102180e+01    2.488211e+00
  1.113293e+01    2.437592e+00
  1.124406e+01    2.421439e+00
  1.135519e+01    2.379281e+00
  1.146632e+01    2.365849e+00
  1.157745e+01    2.324505e+00
  1.168858e+01    2.360875e+00
  1.179971e+01    2.332180e+00
  1.191084e+01    2.293192e+00
  1.202197e+01    2.321545e+00
  1.213309e+01    2.286588e+00
  1.224422e+01    2.312189e+00
  1.235535e+01    2.276782e+00
  1.246648e+01    2.292313e+00
  1.257761e+01    2.353574e+00
  1.268874e+01    2.438595e+00
  1.279987e+01    2.635282e+00
  1.291100e+01    3.222740e+00
  1.302213e+01    6.096700e+00
  1.313326e+01    1.477650e+01
  1.324438e+01    1.269057e+01
  1.335551e+01    4.573201e+00
  1.346664e+01    2.886224e+00
  1.357777e+01    2.409445e+00
  1.368890e+01    2.223607e+00
  1.380003e+01    2.195586e+00
  1.391116e+01    2.050418e+00
  1.402229e+01    2.017609e+00
  1.413342e+01    1.995793e+00
  1.424455e+01    1.991650e+00
  1.435568e+01    1.891903e+00
  1.446680e+01    1.901518e+00
  1.457793e+01    1.900490e+00
  1.468906e+01    1.871198e+00
  1.480019e+01    1.882905e+00
  1.491132e+01    1.962313e+00
  1.502245e+01    2.188902e+00
  1.513358e+01    3.365330e+00
  1.524471e+01    5.761091e+00
  1.535584e+01    4.054718e+00
  1.546697e+01    2.250401e+00
  1.557809e+01    1.893009e+00
  1.568922e+01    1.746396e+00
  1.580035e+01    1.658533e+00
  1.591148e+01    1.616239e+00
  1.602261e+01    1.578094e+00
  1.613374e+01    1.569597e+00
  1.624487e+01    1.530935e+00
  1.635600e+01    1.508865e+00
  1.646713e+01    1.484001e+00
  1.657826e+01    1.495801e+00
  1.668938e+01    1.433346e+00
  1.680051e+01    1.428726e+00
  1.691164e+01    1.421698e+00
  1.702277e+01    1.417818e+00
  1.713390e+01    1.405751e+00
  1.724503e+01    1.406182e+00
  1.735616e+01    1.353433e+00
  1.746729e+01    1.336516e+00
  1.757842e+01    1.343774e+00
  1.768955e+01    1.306943e+00
  1.780067e+01    1.304028e+00
  1.791180e+01    1.284305e+00
  1.802293e+01    1.298392e+00
  1.813406e+01    1.260075e+00
  1.824519e+01    1.251017e+00
  1.835632e+01    1.241733e+00
  1.846745e+01    1.242679e+00
  1.857858e+01    1.219149e+00
  1.868971e+01    1.220534e+00
  1.880084e+01    1.218092e+00
  1.891196e+01    1.217316e+00
  1.902309e+01    1.196825e+00
  1.913422e+01    1.200492e+00
  1.924535e+01    1.157530e+00
  1.935648e+01    1.161765e+00
  1.946761e+01    1.126154e+00
  1.957874e+01    1.141023e+00
  1.968987e+01    1.123289e+00
  1.980100e+01    1.134487e+00
  1.991213e+01    1.096354e+00
  2.002325e+01    1.115837e+00
  2.013438e+01    1.093090e+00
  2.024551e+01    1.081091e+00
  2.035664e+01    1.091650e+00
  2.046777e+01    1.080325e+00
  2.057890e+01    1.065485e+00
  2.069003e+01    1.062021e+00
  2.080116e+01    1.068904e+00
  2.091229e+01    1.076028e+00
  2.102342e+01    1.046019e+00
  2.113455e+01    1.070296e+00
  2.124567e+01    1.085641e+00
  2.135680e+01    1.129336e+00
  2.146793e+01    1.238501e+00
  2.157906e+01    1.440944e+00
  2.169019e+01    2.262859e+00
  2.180132e+01    5.326964e+00
  2.191245e+01    9.801355e+00
  2.202358e+01    4.262992e+00
  2.213471e+01    1.911436e+00
  2.224584e+01    1.319498e+00
  2.235696e+01    1.126104e+00
  2.246809e+01    1.045448e+00
  2.257922e+01    9.793937e-01
  2.269035e+01    9.550475e-01
  2.280148e+01    9.228454e-01
  2.291261e+01    9.052322e-01
  2.302374e+01    8.967972e-01
  2.313487e+01    8.627672e-01
  2.324600e+01    8.584131e-01
  2.335713e+01    8.435125e-01
  2.346825e+01    8.546808e-01
  2.357938e+01    8.318805e-01
  2.369051e+01    8.305007e-01
  2.380164e+01    8.062093e-01
  2.391277e+01    7.913780e-01
  2.402390e+01    7.672469e-01
  2.413503e+01    7.585850e-01
  2.424616e+01    7.821221e-01
  2.435729e+01    8.039671e-01
  2.446842e+01    7.784176e-01
  2.457954e+01    7.858464e-01
  2.469067e+01    7.868413e-01
  2.480180e+01    7.854967e-01
  2.491293e+01    8.051421e-01
  2.502406e+01    8.068661e-01
  2.513519e+01    8.161256e-01
  2.524632e+01    8.286639e-01
  2.535745e+01    8.747206e-01
  2.546858e+01    9.304374e-01
  2.557971e+01    1.053914e+00
  2.569083e+01    1.369161e+00
  2.580196e+01    2.459112e+00
  2.591309e+01    6.171253e+00
  2.602422e+01    6.840891e+00
  2.613535e+01    2.513044e+00
  2.624648e+01    1.387012e+00
  2.635761e+01    1.052636e+00
  2.646874e+01    9.570030e-01
  2.657987e+01    9.235626e-01
  2.669100e+01    9.036725e-01
  2.680212e+01    8.896430e-01
  2.691325e+01    9.071819e-01
  2.702438e+01    1.047726e+00
  2.713551e+01    1.553737e+00
  2.724664e+01    2.338475e+00
  2.735777e+01    1.376951e+00
  2.746890e+01    9.978849e-01
  2.758003e+01    8.826105e-01
  2.769116e+01    8.084216e-01
  2.780229e+01    8.163937e-01
  2.791342e+01    7.875271e-01
  2.802454e+01    7.847729e-01
  2.813567e+01    7.504427e-01
  2.824680e+01    7.470697e-01
  2.835793e+01    7.538154e-01
  2.846906e+01    7.378961e-01
  2.858019e+01    7.476838e-01
  2.869132e+01    7.464300e-01
  2.880245e+01    7.526758e-01
  2.891358e+01    7.449065e-01
  2.902471e+01    7.320687e-01
  2.913583e+01    7.287897e-01
  2.924696e+01    7.326055e-01
  2.935809e+01    7.370898e-01
  2.946922e+01    7.123940e-01
  2.958035e+01    7.329163e-01
  2.969148e+01    7.052166e-01
  2.980261e+01    7.015345e-01
  2.991374e+01    7.176460e-01
  3.002487e+01    7.323536e-01
  3.013600e+01    7.073805e-01
  3.024712e+01    7.166427e-01
  3.035825e+01    7.087693e-01
  3.046938e+01    7.073760e-01
  3.058051e+01    7.081411e-01
  3.069164e+01    6.941410e-01
  3.080277e+01    7.134910e-01
  3.091390e+01    6.990641e-01
  3.102503e+01    7.180200e-01
  3.113616e+01    7.120985e-01
  3.124729e+01    7.303823e-01
  3.135841e+01    7.404262e-01
  3.146954e+01    7.228779e-01
  3.158067e+01    7.852778e-01
  3.169180e+01    8.961685e-01
  3.180293e+01    1.313522e+00
  3.191406e+01    2.259442e+00
  3.202519e+01    1.543108e+00
  3.213632e+01    9.494178e-01
  3.224745e+01    8.016501e-01
  3.235858e+01    7.586447e-01
  3.246970e+01    7.317137e-01
  3.254908e+01    7.125054e-01