Folder: myspot_2024_07/XRD (part 42)

File: 2024-07-27_002_Ru-CGO-ex_Activtation_ramp_000002_data_000182.dat
# == pyFAI calibration ==
# Distance Sample to Detector: 0.4 m
# PONI: 9.750e-02, 1.135e-01 m
# Rotations: -0.000175 0.000000 -0.000000 rad
#
# == Fit2d calibration ==
# Distance Sample-beamCenter: 400.000 mm
# Center: x=1514.000, y=1300.000 pix
# Tilt: 0.010 deg  TiltPlanRot: 0.010 deg
#
# Detector Detector	 Spline= None	 PixelSize= 7.500e-05, 7.500e-05 m
#    Detector has a mask: False
#    Detector has a dark current: False
#    detector has a flat field: False
#
# Wavelength: 6.888e-11 m
# Mask applied: user provided
# Dark current applied: False
# Flat field applied: False
# Polarization factor: 0.99
# Normalization factor: 1.0
# --> /home/myspot/data/2024_07_Rosario/Ru-CGO-ex/2024-07-27_002_Ru-CGO-ex_Activtation_ramp_000002_data_000182.dat
#       q_nm^-1             I
  2.003187e-02    0.000000e+00
  1.311609e-01    3.919510e-02
  2.422899e-01    4.163101e-03
  3.534189e-01    6.719930e-02
  4.645479e-01    5.182726e-02
  5.756770e-01    2.852187e-02
  6.868060e-01    5.910364e-02
  7.979350e-01    1.201918e-01
  9.090640e-01    6.016473e-01
  1.020193e+00    1.089415e+00
  1.131322e+00    1.442099e+00
  1.242451e+00    1.990644e+00
  1.353580e+00    2.448230e+00
  1.464709e+00    2.657289e+00
  1.575838e+00    2.913338e+00
  1.686967e+00    2.608116e+00
  1.798096e+00    2.663812e+00
  1.909225e+00    2.665662e+00
  2.020354e+00    2.699618e+00
  2.131483e+00    2.799747e+00
  2.242612e+00    2.746099e+00
  2.353741e+00    2.727249e+00
  2.464870e+00    2.759242e+00
  2.575999e+00    2.709962e+00
  2.687128e+00    2.781260e+00
  2.798257e+00    2.806642e+00
  2.909386e+00    2.827092e+00
  3.020515e+00    2.812168e+00
  3.131644e+00    2.962251e+00
  3.242773e+00    2.997192e+00
  3.353902e+00    2.995503e+00
  3.465031e+00    2.964571e+00
  3.576160e+00    2.960350e+00
  3.687289e+00    3.053009e+00
  3.798418e+00    2.944455e+00
  3.909547e+00    3.076366e+00
  4.020676e+00    3.119289e+00
  4.131806e+00    3.016941e+00
  4.242935e+00    3.125803e+00
  4.354064e+00    3.029361e+00
  4.465193e+00    3.127913e+00
  4.576322e+00    3.111615e+00
  4.687451e+00    3.106978e+00
  4.798580e+00    3.141855e+00
  4.909709e+00    3.132814e+00
  5.020838e+00    3.126374e+00
  5.131967e+00    3.128060e+00
  5.243096e+00    3.114795e+00
  5.354225e+00    3.114155e+00
  5.465354e+00    3.006036e+00
  5.576483e+00    3.171280e+00
  5.687612e+00    3.092039e+00
  5.798741e+00    3.078524e+00
  5.909870e+00    3.010556e+00
  6.020999e+00    3.091108e+00
  6.132128e+00    3.064765e+00
  6.243257e+00    3.115029e+00
  6.354386e+00    3.167343e+00
  6.465515e+00    3.114448e+00
  6.576644e+00    3.044299e+00
  6.687773e+00    3.034281e+00
  6.798902e+00    3.079905e+00
  6.910031e+00    3.029875e+00
  7.021160e+00    3.046406e+00
  7.132289e+00    3.011044e+00
  7.243418e+00    3.059216e+00
  7.354547e+00    3.031624e+00
  7.465676e+00    3.016891e+00
  7.576805e+00    3.020238e+00
  7.687934e+00    3.019366e+00
  7.799063e+00    2.957752e+00
  7.910192e+00    2.934588e+00
  8.021321e+00    2.958105e+00
  8.132450e+00    2.978164e+00
  8.243579e+00    3.090110e+00
  8.354708e+00    2.958510e+00
  8.465837e+00    2.867498e+00
  8.576966e+00    2.878331e+00
  8.688095e+00    2.881209e+00
  8.799224e+00    2.856725e+00
  8.910353e+00    2.871590e+00
  9.021482e+00    2.801283e+00
  9.132611e+00    2.773654e+00
  9.243740e+00    2.722894e+00
  9.354869e+00    2.805559e+00
  9.465998e+00    2.708093e+00
  9.577127e+00    2.726175e+00
  9.688256e+00    2.741265e+00
  9.799385e+00    2.769169e+00
  9.910514e+00    2.677946e+00
  1.002164e+01    2.688219e+00
  1.013277e+01    2.697918e+00
  1.024390e+01    2.652081e+00
  1.035503e+01    2.639226e+00
  1.046616e+01    2.648677e+00
  1.057729e+01    2.624271e+00
  1.068842e+01    2.521834e+00
  1.079955e+01    2.538959e+00
  1.091068e+01    2.512181e+00
  1.102180e+01    2.514694e+00
  1.113293e+01    2.446626e+00
  1.124406e+01    2.487792e+00
  1.135519e+01    2.460253e+00
  1.146632e+01    2.418597e+00
  1.157745e+01    2.396071e+00
  1.168858e+01    2.377774e+00
  1.179971e+01    2.394383e+00
  1.191084e+01    2.363748e+00
  1.202197e+01    2.336656e+00
  1.213309e+01    2.321822e+00
  1.224422e+01    2.291642e+00
  1.235535e+01    2.380436e+00
  1.246648e+01    2.320488e+00
  1.257761e+01    2.431435e+00
  1.268874e+01    2.399349e+00
  1.279987e+01    2.612621e+00
  1.291100e+01    3.278772e+00
  1.302213e+01    6.125722e+00
  1.313326e+01    1.407031e+01
  1.324438e+01    1.044030e+01
  1.335551e+01    4.055726e+00
  1.346664e+01    2.767277e+00
  1.357777e+01    2.382737e+00
  1.368890e+01    2.244943e+00
  1.380003e+01    2.253421e+00
  1.391116e+01    2.099947e+00
  1.402229e+01    2.072987e+00
  1.413342e+01    2.015955e+00
  1.424455e+01    1.999479e+00
  1.435568e+01    1.955892e+00
  1.446680e+01    1.887105e+00
  1.457793e+01    1.920247e+00
  1.468906e+01    1.907834e+00
  1.480019e+01    1.903915e+00
  1.491132e+01    1.966025e+00
  1.502245e+01    2.238286e+00
  1.513358e+01    3.431078e+00
  1.524471e+01    5.397739e+00
  1.535584e+01    3.552406e+00
  1.546697e+01    2.171388e+00
  1.557809e+01    1.868214e+00
  1.568922e+01    1.775262e+00
  1.580035e+01    1.656545e+00
  1.591148e+01    1.650851e+00
  1.602261e+01    1.634340e+00
  1.613374e+01    1.578331e+00
  1.624487e+01    1.609351e+00
  1.635600e+01    1.567152e+00
  1.646713e+01    1.534971e+00
  1.657826e+01    1.538425e+00
  1.668938e+01    1.500710e+00
  1.680051e+01    1.456286e+00
  1.691164e+01    1.455450e+00
  1.702277e+01    1.418968e+00
  1.713390e+01    1.425960e+00
  1.724503e+01    1.400622e+00
  1.735616e+01    1.388516e+00
  1.746729e+01    1.366851e+00
  1.757842e+01    1.380484e+00
  1.768955e+01    1.337722e+00
  1.780067e+01    1.332885e+00
  1.791180e+01    1.326871e+00
  1.802293e+01    1.299421e+00
  1.813406e+01    1.277950e+00
  1.824519e+01    1.284234e+00
  1.835632e+01    1.277586e+00
  1.846745e+01    1.292214e+00
  1.857858e+01    1.244028e+00
  1.868971e+01    1.246599e+00
  1.880084e+01    1.205855e+00
  1.891196e+01    1.214053e+00
  1.902309e+01    1.184791e+00
  1.913422e+01    1.215296e+00
  1.924535e+01    1.179501e+00
  1.935648e+01    1.188995e+00
  1.946761e+01    1.172049e+00
  1.957874e+01    1.167074e+00
  1.968987e+01    1.157572e+00
  1.980100e+01    1.124419e+00
  1.991213e+01    1.129676e+00
  2.002325e+01    1.120823e+00
  2.013438e+01    1.104034e+00
  2.024551e+01    1.142806e+00
  2.035664e+01    1.092529e+00
  2.046777e+01    1.090275e+00
  2.057890e+01    1.090922e+00
  2.069003e+01    1.089332e+00
  2.080116e+01    1.077996e+00
  2.091229e+01    1.078250e+00
  2.102342e+01    1.075961e+00
  2.113455e+01    1.066528e+00
  2.124567e+01    1.096536e+00
  2.135680e+01    1.123935e+00
  2.146793e+01    1.222097e+00
  2.157906e+01    1.489558e+00
  2.169019e+01    2.287668e+00
  2.180132e+01    5.502005e+00
  2.191245e+01    8.627636e+00
  2.202358e+01    3.486902e+00
  2.213471e+01    1.723499e+00
  2.224584e+01    1.247430e+00
  2.235696e+01    1.089133e+00
  2.246809e+01    1.050052e+00
  2.257922e+01    9.803134e-01
  2.269035e+01    9.634708e-01
  2.280148e+01    9.227683e-01
  2.291261e+01    8.978882e-01
  2.302374e+01    8.984185e-01
  2.313487e+01    8.640200e-01
  2.324600e+01    8.786268e-01
  2.335713e+01    8.496671e-01
  2.346825e+01    8.673998e-01
  2.357938e+01    8.559833e-01
  2.369051e+01    8.198080e-01
  2.380164e+01    7.992850e-01
  2.391277e+01    7.719871e-01
  2.402390e+01    7.892852e-01
  2.413503e+01    7.864793e-01
  2.424616e+01    7.901562e-01
  2.435729e+01    7.728232e-01
  2.446842e+01    7.843581e-01
  2.457954e+01    7.873517e-01
  2.469067e+01    7.731130e-01
  2.480180e+01    7.837297e-01
  2.491293e+01    8.024259e-01
  2.502406e+01    8.089268e-01
  2.513519e+01    8.112053e-01
  2.524632e+01    8.261735e-01
  2.535745e+01    8.895137e-01
  2.546858e+01    9.484539e-01
  2.557971e+01    1.091934e+00
  2.569083e+01    1.390767e+00
  2.580196e+01    2.662075e+00
  2.591309e+01    6.143323e+00
  2.602422e+01    5.304900e+00
  2.613535e+01    2.012526e+00
  2.624648e+01    1.245667e+00
  2.635761e+01    1.017540e+00
  2.646874e+01    9.325067e-01
  2.657987e+01    9.019867e-01
  2.669100e+01    8.480681e-01
  2.680212e+01    8.625927e-01
  2.691325e+01    9.100568e-01
  2.702438e+01    1.065467e+00
  2.713551e+01    1.645260e+00
  2.724664e+01    2.062892e+00
  2.735777e+01    1.176913e+00
  2.746890e+01    9.242980e-01
  2.758003e+01    8.391837e-01
  2.769116e+01    8.154964e-01
  2.780229e+01    8.121523e-01
  2.791342e+01    7.799937e-01
  2.802454e+01    7.957816e-01
  2.813567e+01    7.777534e-01
  2.824680e+01    7.579963e-01
  2.835793e+01    7.405651e-01
  2.846906e+01    7.755238e-01
  2.858019e+01    7.617500e-01
  2.869132e+01    7.354307e-01
  2.880245e+01    7.406164e-01
  2.891358e+01    7.391831e-01
  2.902471e+01    7.619049e-01
  2.913583e+01    7.462201e-01
  2.924696e+01    7.365452e-01
  2.935809e+01    7.404743e-01
  2.946922e+01    7.305664e-01
  2.958035e+01    7.205935e-01
  2.969148e+01    7.192338e-01
  2.980261e+01    7.520349e-01
  2.991374e+01    7.261709e-01
  3.002487e+01    7.298234e-01
  3.013600e+01    7.071722e-01
  3.024712e+01    7.116829e-01
  3.035825e+01    6.964170e-01
  3.046938e+01    7.060938e-01
  3.058051e+01    7.052153e-01
  3.069164e+01    7.137612e-01
  3.080277e+01    6.902387e-01
  3.091390e+01    7.003714e-01
  3.102503e+01    7.052216e-01
  3.113616e+01    7.223150e-01
  3.124729e+01    7.464969e-01
  3.135841e+01    7.414814e-01
  3.146954e+01    7.462477e-01
  3.158067e+01    7.907556e-01
  3.169180e+01    9.422634e-01
  3.180293e+01    1.413219e+00
  3.191406e+01    2.133427e+00
  3.202519e+01    1.263656e+00
  3.213632e+01    8.825337e-01
  3.224745e+01    7.712823e-01
  3.235858e+01    7.300091e-01
  3.246970e+01    6.982043e-01
  3.254908e+01    7.314437e-01

File: 2024-07-27_002_Ru-CGO-ex_Activtation_ramp_000002_data_000184.dat
# == pyFAI calibration ==
# Distance Sample to Detector: 0.4 m
# PONI: 9.750e-02, 1.135e-01 m
# Rotations: -0.000175 0.000000 -0.000000 rad
#
# == Fit2d calibration ==
# Distance Sample-beamCenter: 400.000 mm
# Center: x=1514.000, y=1300.000 pix
# Tilt: 0.010 deg  TiltPlanRot: 0.010 deg
#
# Detector Detector	 Spline= None	 PixelSize= 7.500e-05, 7.500e-05 m
#    Detector has a mask: False
#    Detector has a dark current: False
#    detector has a flat field: False
#
# Wavelength: 6.888e-11 m
# Mask applied: user provided
# Dark current applied: False
# Flat field applied: False
# Polarization factor: 0.99
# Normalization factor: 1.0
# --> /home/myspot/data/2024_07_Rosario/Ru-CGO-ex/2024-07-27_002_Ru-CGO-ex_Activtation_ramp_000002_data_000184.dat
#       q_nm^-1             I
  2.003187e-02    0.000000e+00
  1.311609e-01    9.857904e-03
  2.422899e-01    2.305469e-02
  3.534189e-01    2.657658e-02
  4.645479e-01    4.162116e-02
  5.756770e-01    5.304725e-02
  6.868060e-01    3.097040e-02
  7.979350e-01    1.102948e-01
  9.090640e-01    5.900113e-01
  1.020193e+00    1.103309e+00
  1.131322e+00    1.481410e+00
  1.242451e+00    2.069565e+00
  1.353580e+00    2.558366e+00
  1.464709e+00    2.740685e+00
  1.575838e+00    2.797885e+00
  1.686967e+00    2.769167e+00
  1.798096e+00    2.760583e+00
  1.909225e+00    2.708544e+00
  2.020354e+00    2.686393e+00
  2.131483e+00    2.720603e+00
  2.242612e+00    2.481827e+00
  2.353741e+00    2.721487e+00
  2.464870e+00    2.747851e+00
  2.575999e+00    2.800951e+00
  2.687128e+00    2.721506e+00
  2.798257e+00    2.751914e+00
  2.909386e+00    2.893197e+00
  3.020515e+00    2.903247e+00
  3.131644e+00    2.891661e+00
  3.242773e+00    2.863902e+00
  3.353902e+00    2.913821e+00
  3.465031e+00    2.909662e+00
  3.576160e+00    2.969738e+00
  3.687289e+00    3.011454e+00
  3.798418e+00    2.972672e+00
  3.909547e+00    3.039306e+00
  4.020676e+00    2.933723e+00
  4.131806e+00    2.974508e+00
  4.242935e+00    3.113774e+00
  4.354064e+00    3.093111e+00
  4.465193e+00    3.071856e+00
  4.576322e+00    3.093226e+00
  4.687451e+00    3.115507e+00
  4.798580e+00    3.081788e+00
  4.909709e+00    3.053423e+00
  5.020838e+00    3.138994e+00
  5.131967e+00    3.191553e+00
  5.243096e+00    3.102738e+00
  5.354225e+00    3.163127e+00
  5.465354e+00    3.109908e+00
  5.576483e+00    3.021975e+00
  5.687612e+00    3.044752e+00
  5.798741e+00    3.088140e+00
  5.909870e+00    3.047624e+00
  6.020999e+00    3.027083e+00
  6.132128e+00    3.157626e+00
  6.243257e+00    3.079722e+00
  6.354386e+00    3.099906e+00
  6.465515e+00    3.076295e+00
  6.576644e+00    3.092435e+00
  6.687773e+00    3.024858e+00
  6.798902e+00    3.011927e+00
  6.910031e+00    2.970672e+00
  7.021160e+00    3.089203e+00
  7.132289e+00    3.074179e+00
  7.243418e+00    3.063590e+00
  7.354547e+00    2.993349e+00
  7.465676e+00    2.940969e+00
  7.576805e+00    2.991253e+00
  7.687934e+00    2.951087e+00
  7.799063e+00    2.933168e+00
  7.910192e+00    2.936729e+00
  8.021321e+00    2.883497e+00
  8.132450e+00    2.936550e+00
  8.243579e+00    2.953869e+00
  8.354708e+00    2.932602e+00
  8.465837e+00    2.874402e+00
  8.576966e+00    2.919028e+00
  8.688095e+00    2.930450e+00
  8.799224e+00    2.888520e+00
  8.910353e+00    2.865309e+00
  9.021482e+00    2.765296e+00
  9.132611e+00    2.809908e+00
  9.243740e+00    2.727600e+00
  9.354869e+00    2.794270e+00
  9.465998e+00    2.742859e+00
  9.577127e+00    2.784185e+00
  9.688256e+00    2.716653e+00
  9.799385e+00    2.708472e+00
  9.910514e+00    2.728999e+00
  1.002164e+01    2.624913e+00
  1.013277e+01    2.646048e+00
  1.024390e+01    2.678859e+00
  1.035503e+01    2.659997e+00
  1.046616e+01    2.630410e+00
  1.057729e+01    2.549256e+00
  1.068842e+01    2.541051e+00
  1.079955e+01    2.567469e+00
  1.091068e+01    2.507855e+00
  1.102180e+01    2.529571e+00
  1.113293e+01    2.472542e+00
  1.124406e+01    2.474426e+00
  1.135519e+01    2.406327e+00
  1.146632e+01    2.412106e+00
  1.157745e+01    2.404097e+00
  1.168858e+01    2.408775e+00
  1.179971e+01    2.380531e+00
  1.191084e+01    2.347904e+00
  1.202197e+01    2.324435e+00
  1.213309e+01    2.315431e+00
  1.224422e+01    2.296391e+00
  1.235535e+01    2.336482e+00
  1.246648e+01    2.347375e+00
  1.257761e+01    2.344361e+00
  1.268874e+01    2.435198e+00
  1.279987e+01    2.650541e+00
  1.291100e+01    3.286549e+00
  1.302213e+01    6.040588e+00
  1.313326e+01    1.380852e+01
  1.324438e+01    1.047015e+01
  1.335551e+01    4.061990e+00
  1.346664e+01    2.856302e+00
  1.357777e+01    2.364593e+00
  1.368890e+01    2.249910e+00
  1.380003e+01    2.130140e+00
  1.391116e+01    2.097886e+00
  1.402229e+01    2.050474e+00
  1.413342e+01    1.990133e+00
  1.424455e+01    1.976151e+00
  1.435568e+01    1.946732e+00
  1.446680e+01    1.951760e+00
  1.457793e+01    1.907210e+00
  1.468906e+01    1.923130e+00
  1.480019e+01    1.952292e+00
  1.491132e+01    1.937095e+00
  1.502245e+01    2.179461e+00
  1.513358e+01    3.406663e+00
  1.524471e+01    5.387671e+00
  1.535584e+01    3.534455e+00
  1.546697e+01    2.178026e+00
  1.557809e+01    1.863610e+00
  1.568922e+01    1.749153e+00
  1.580035e+01    1.680879e+00
  1.591148e+01    1.629717e+00
  1.602261e+01    1.593736e+00
  1.613374e+01    1.632551e+00
  1.624487e+01    1.588568e+00
  1.635600e+01    1.544900e+00
  1.646713e+01    1.509436e+00
  1.657826e+01    1.547648e+00
  1.668938e+01    1.467010e+00
  1.680051e+01    1.467037e+00
  1.691164e+01    1.448539e+00
  1.702277e+01    1.438605e+00
  1.713390e+01    1.406425e+00
  1.724503e+01    1.418059e+00
  1.735616e+01    1.391657e+00
  1.746729e+01    1.366756e+00
  1.757842e+01    1.357020e+00
  1.768955e+01    1.348893e+00
  1.780067e+01    1.321599e+00
  1.791180e+01    1.331479e+00
  1.802293e+01    1.305873e+00
  1.813406e+01    1.301567e+00
  1.824519e+01    1.288462e+00
  1.835632e+01    1.262071e+00
  1.846745e+01    1.252419e+00
  1.857858e+01    1.271318e+00
  1.868971e+01    1.220668e+00
  1.880084e+01    1.213916e+00
  1.891196e+01    1.194728e+00
  1.902309e+01    1.205840e+00
  1.913422e+01    1.181571e+00
  1.924535e+01    1.194430e+00
  1.935648e+01    1.167928e+00
  1.946761e+01    1.172124e+00
  1.957874e+01    1.170493e+00
  1.968987e+01    1.147522e+00
  1.980100e+01    1.139877e+00
  1.991213e+01    1.108590e+00
  2.002325e+01    1.109020e+00
  2.013438e+01    1.139489e+00
  2.024551e+01    1.092956e+00
  2.035664e+01    1.109404e+00
  2.046777e+01    1.079634e+00
  2.057890e+01    1.091376e+00
  2.069003e+01    1.089445e+00
  2.080116e+01    1.073523e+00
  2.091229e+01    1.065869e+00
  2.102342e+01    1.072934e+00
  2.113455e+01    1.110505e+00
  2.124567e+01    1.107770e+00
  2.135680e+01    1.152534e+00
  2.146793e+01    1.207596e+00
  2.157906e+01    1.441607e+00
  2.169019e+01    2.299208e+00
  2.180132e+01    5.435901e+00
  2.191245e+01    8.693506e+00
  2.202358e+01    3.509856e+00
  2.213471e+01    1.741089e+00
  2.224584e+01    1.271455e+00
  2.235696e+01    1.101617e+00
  2.246809e+01    1.032667e+00
  2.257922e+01    9.734169e-01
  2.269035e+01    9.468651e-01
  2.280148e+01    9.291692e-01
  2.291261e+01    8.994852e-01
  2.302374e+01    8.743554e-01
  2.313487e+01    8.867468e-01
  2.324600e+01    8.593423e-01
  2.335713e+01    8.420528e-01
  2.346825e+01    8.274716e-01
  2.357938e+01    8.375676e-01
  2.369051e+01    8.398747e-01
  2.380164e+01    8.248093e-01
  2.391277e+01    7.802127e-01
  2.402390e+01    7.931385e-01
  2.413503e+01    7.913158e-01
  2.424616e+01    7.736375e-01
  2.435729e+01    7.939948e-01
  2.446842e+01    7.741323e-01
  2.457954e+01    7.904679e-01
  2.469067e+01    7.961894e-01
  2.480180e+01    7.998763e-01
  2.491293e+01    7.949833e-01
  2.502406e+01    8.042266e-01
  2.513519e+01    8.048943e-01
  2.524632e+01    8.389242e-01
  2.535745e+01    8.837972e-01
  2.546858e+01    9.197217e-01
  2.557971e+01    1.027829e+00
  2.569083e+01    1.395508e+00
  2.580196e+01    2.633692e+00
  2.591309e+01    6.105652e+00
  2.602422e+01    5.318897e+00
  2.613535e+01    2.027542e+00
  2.624648e+01    1.258808e+00
  2.635761e+01    1.014853e+00
  2.646874e+01    9.231642e-01
  2.657987e+01    8.945804e-01
  2.669100e+01    8.794795e-01
  2.680212e+01    8.589271e-01
  2.691325e+01    9.155097e-01
  2.702438e+01    1.049629e+00
  2.713551e+01    1.583787e+00
  2.724664e+01    1.998541e+00
  2.735777e+01    1.187615e+00
  2.746890e+01    9.389810e-01
  2.758003e+01    8.579221e-01
  2.769116e+01    8.367902e-01
  2.780229e+01    7.933810e-01
  2.791342e+01    7.862914e-01
  2.802454e+01    7.711210e-01
  2.813567e+01    7.704965e-01
  2.824680e+01    7.696913e-01
  2.835793e+01    7.498719e-01
  2.846906e+01    7.354533e-01
  2.858019e+01    7.379162e-01
  2.869132e+01    7.783698e-01
  2.880245e+01    7.172958e-01
  2.891358e+01    7.221367e-01
  2.902471e+01    7.372670e-01
  2.913583e+01    7.213042e-01
  2.924696e+01    7.130849e-01
  2.935809e+01    7.239445e-01
  2.946922e+01    7.204017e-01
  2.958035e+01    7.287731e-01
  2.969148e+01    7.141682e-01
  2.980261e+01    7.232570e-01
  2.991374e+01    7.024324e-01
  3.002487e+01    7.191337e-01
  3.013600e+01    7.087445e-01
  3.024712e+01    7.172445e-01
  3.035825e+01    6.861677e-01
  3.046938e+01    7.025900e-01
  3.058051e+01    7.020578e-01
  3.069164e+01    7.016336e-01
  3.080277e+01    7.101875e-01
  3.091390e+01    7.080711e-01
  3.102503e+01    7.235580e-01
  3.113616e+01    7.280896e-01
  3.124729e+01    7.269934e-01
  3.135841e+01    7.467043e-01
  3.146954e+01    7.634769e-01
  3.158067e+01    7.956532e-01
  3.169180e+01    9.233813e-01
  3.180293e+01    1.390723e+00
  3.191406e+01    2.105475e+00
  3.202519e+01    1.301955e+00
  3.213632e+01    8.822907e-01
  3.224745e+01    7.639261e-01
  3.235858e+01    7.292069e-01
  3.246970e+01    7.078875e-01
  3.254908e+01    7.128012e-01