Folder: myspot_2024_07/XRD (part 15)

File: 2024-07-27_002_Ru-CGO-ex_Activtation_ramp_000002_data_000060.dat
# == pyFAI calibration ==
# Distance Sample to Detector: 0.4 m
# PONI: 9.750e-02, 1.135e-01 m
# Rotations: -0.000175 0.000000 -0.000000 rad
#
# == Fit2d calibration ==
# Distance Sample-beamCenter: 400.000 mm
# Center: x=1514.000, y=1300.000 pix
# Tilt: 0.010 deg  TiltPlanRot: 0.010 deg
#
# Detector Detector	 Spline= None	 PixelSize= 7.500e-05, 7.500e-05 m
#    Detector has a mask: False
#    Detector has a dark current: False
#    detector has a flat field: False
#
# Wavelength: 6.888e-11 m
# Mask applied: user provided
# Dark current applied: False
# Flat field applied: False
# Polarization factor: 0.99
# Normalization factor: 1.0
# --> /home/myspot/data/2024_07_Rosario/Ru-CGO-ex/2024-07-27_002_Ru-CGO-ex_Activtation_ramp_000002_data_000060.dat
#       q_nm^-1             I
  2.003187e-02    0.000000e+00
  1.311609e-01    6.681012e-02
  2.422899e-01    5.853832e-02
  3.534189e-01    5.810384e-04
  4.645479e-01    2.921032e-02
  5.756770e-01    2.768277e-02
  6.868060e-01    2.527422e-02
  7.979350e-01    1.246276e-01
  9.090640e-01    4.743344e-01
  1.020193e+00    1.104947e+00
  1.131322e+00    1.460183e+00
  1.242451e+00    2.048378e+00
  1.353580e+00    2.496090e+00
  1.464709e+00    2.817575e+00
  1.575838e+00    2.992044e+00
  1.686967e+00    2.768941e+00
  1.798096e+00    2.869708e+00
  1.909225e+00    2.931621e+00
  2.020354e+00    2.631445e+00
  2.131483e+00    2.644677e+00
  2.242612e+00    2.792542e+00
  2.353741e+00    2.845850e+00
  2.464870e+00    2.822156e+00
  2.575999e+00    2.814886e+00
  2.687128e+00    2.860010e+00
  2.798257e+00    2.890811e+00
  2.909386e+00    2.902829e+00
  3.020515e+00    2.862221e+00
  3.131644e+00    2.746744e+00
  3.242773e+00    2.888023e+00
  3.353902e+00    2.979245e+00
  3.465031e+00    3.024124e+00
  3.576160e+00    2.933570e+00
  3.687289e+00    2.918641e+00
  3.798418e+00    3.037022e+00
  3.909547e+00    2.988213e+00
  4.020676e+00    3.043267e+00
  4.131806e+00    2.994074e+00
  4.242935e+00    3.073720e+00
  4.354064e+00    3.119747e+00
  4.465193e+00    3.157340e+00
  4.576322e+00    3.051090e+00
  4.687451e+00    3.117638e+00
  4.798580e+00    3.097219e+00
  4.909709e+00    3.096946e+00
  5.020838e+00    3.141278e+00
  5.131967e+00    3.154144e+00
  5.243096e+00    3.102248e+00
  5.354225e+00    3.070134e+00
  5.465354e+00    3.117324e+00
  5.576483e+00    3.055724e+00
  5.687612e+00    3.024956e+00
  5.798741e+00    3.114739e+00
  5.909870e+00    3.072643e+00
  6.020999e+00    3.134534e+00
  6.132128e+00    3.076692e+00
  6.243257e+00    3.023057e+00
  6.354386e+00    2.981323e+00
  6.465515e+00    3.049680e+00
  6.576644e+00    2.968825e+00
  6.687773e+00    3.005064e+00
  6.798902e+00    2.965878e+00
  6.910031e+00    3.066497e+00
  7.021160e+00    2.969162e+00
  7.132289e+00    2.972870e+00
  7.243418e+00    2.959410e+00
  7.354547e+00    2.977820e+00
  7.465676e+00    3.007327e+00
  7.576805e+00    2.933397e+00
  7.687934e+00    2.987094e+00
  7.799063e+00    2.902398e+00
  7.910192e+00    2.940130e+00
  8.021321e+00    2.854322e+00
  8.132450e+00    2.959422e+00
  8.243579e+00    2.958444e+00
  8.354708e+00    2.826310e+00
  8.465837e+00    2.881860e+00
  8.576966e+00    2.869159e+00
  8.688095e+00    2.875682e+00
  8.799224e+00    2.897116e+00
  8.910353e+00    2.800549e+00
  9.021482e+00    2.840210e+00
  9.132611e+00    2.768860e+00
  9.243740e+00    2.791010e+00
  9.354869e+00    2.753632e+00
  9.465998e+00    2.784388e+00
  9.577127e+00    2.823551e+00
  9.688256e+00    2.724491e+00
  9.799385e+00    2.748077e+00
  9.910514e+00    2.665408e+00
  1.002164e+01    2.658663e+00
  1.013277e+01    2.654858e+00
  1.024390e+01    2.658771e+00
  1.035503e+01    2.667129e+00
  1.046616e+01    2.599643e+00
  1.057729e+01    2.630946e+00
  1.068842e+01    2.546952e+00
  1.079955e+01    2.567986e+00
  1.091068e+01    2.516577e+00
  1.102180e+01    2.525661e+00
  1.113293e+01    2.497960e+00
  1.124406e+01    2.501990e+00
  1.135519e+01    2.433389e+00
  1.146632e+01    2.401056e+00
  1.157745e+01    2.423819e+00
  1.168858e+01    2.403012e+00
  1.179971e+01    2.372854e+00
  1.191084e+01    2.313293e+00
  1.202197e+01    2.351852e+00
  1.213309e+01    2.345486e+00
  1.224422e+01    2.336964e+00
  1.235535e+01    2.359275e+00
  1.246648e+01    2.363086e+00
  1.257761e+01    2.379130e+00
  1.268874e+01    2.466362e+00
  1.279987e+01    2.666079e+00
  1.291100e+01    3.318143e+00
  1.302213e+01    6.031626e+00
  1.313326e+01    1.503771e+01
  1.324438e+01    1.463039e+01
  1.335551e+01    5.049218e+00
  1.346664e+01    3.033806e+00
  1.357777e+01    2.507438e+00
  1.368890e+01    2.285969e+00
  1.380003e+01    2.201775e+00
  1.391116e+01    2.086773e+00
  1.402229e+01    2.090456e+00
  1.413342e+01    2.012352e+00
  1.424455e+01    2.021587e+00
  1.435568e+01    1.991373e+00
  1.446680e+01    1.967280e+00
  1.457793e+01    1.953293e+00
  1.468906e+01    1.927626e+00
  1.480019e+01    1.952778e+00
  1.491132e+01    1.962122e+00
  1.502245e+01    2.180887e+00
  1.513358e+01    3.322782e+00
  1.524471e+01    5.985436e+00
  1.535584e+01    4.621963e+00
  1.546697e+01    2.351216e+00
  1.557809e+01    1.944009e+00
  1.568922e+01    1.775558e+00
  1.580035e+01    1.686952e+00
  1.591148e+01    1.696923e+00
  1.602261e+01    1.651120e+00
  1.613374e+01    1.575658e+00
  1.624487e+01    1.549386e+00
  1.635600e+01    1.556112e+00
  1.646713e+01    1.524870e+00
  1.657826e+01    1.505715e+00
  1.668938e+01    1.500661e+00
  1.680051e+01    1.468989e+00
  1.691164e+01    1.434993e+00
  1.702277e+01    1.424438e+00
  1.713390e+01    1.422854e+00
  1.724503e+01    1.411492e+00
  1.735616e+01    1.406871e+00
  1.746729e+01    1.367811e+00
  1.757842e+01    1.343490e+00
  1.768955e+01    1.324629e+00
  1.780067e+01    1.321231e+00
  1.791180e+01    1.327427e+00
  1.802293e+01    1.308365e+00
  1.813406e+01    1.287781e+00
  1.824519e+01    1.298642e+00
  1.835632e+01    1.262076e+00
  1.846745e+01    1.263476e+00
  1.857858e+01    1.256368e+00
  1.868971e+01    1.259330e+00
  1.880084e+01    1.208092e+00
  1.891196e+01    1.232674e+00
  1.902309e+01    1.216707e+00
  1.913422e+01    1.197764e+00
  1.924535e+01    1.178370e+00
  1.935648e+01    1.178655e+00
  1.946761e+01    1.177225e+00
  1.957874e+01    1.175252e+00
  1.968987e+01    1.165096e+00
  1.980100e+01    1.165231e+00
  1.991213e+01    1.129295e+00
  2.002325e+01    1.124720e+00
  2.013438e+01    1.119462e+00
  2.024551e+01    1.134827e+00
  2.035664e+01    1.109879e+00
  2.046777e+01    1.106461e+00
  2.057890e+01    1.095198e+00
  2.069003e+01    1.113547e+00
  2.080116e+01    1.097677e+00
  2.091229e+01    1.091023e+00
  2.102342e+01    1.077844e+00
  2.113455e+01    1.092312e+00
  2.124567e+01    1.103323e+00
  2.135680e+01    1.138223e+00
  2.146793e+01    1.245447e+00
  2.157906e+01    1.446554e+00
  2.169019e+01    2.206876e+00
  2.180132e+01    5.117924e+00
  2.191245e+01    1.026016e+01
  2.202358e+01    5.187163e+00
  2.213471e+01    2.127686e+00
  2.224584e+01    1.424284e+00
  2.235696e+01    1.170470e+00
  2.246809e+01    1.076616e+00
  2.257922e+01    1.021300e+00
  2.269035e+01    9.832414e-01
  2.280148e+01    9.616128e-01
  2.291261e+01    9.087345e-01
  2.302374e+01    8.870574e-01
  2.313487e+01    8.841430e-01
  2.324600e+01    8.547317e-01
  2.335713e+01    8.806116e-01
  2.346825e+01    8.753051e-01
  2.357938e+01    8.450215e-01
  2.369051e+01    8.201047e-01
  2.380164e+01    8.338742e-01
  2.391277e+01    8.171213e-01
  2.402390e+01    7.779834e-01
  2.413503e+01    7.817704e-01
  2.424616e+01    7.872410e-01
  2.435729e+01    8.030374e-01
  2.446842e+01    8.135079e-01
  2.457954e+01    7.907467e-01
  2.469067e+01    7.889026e-01
  2.480180e+01    8.351569e-01
  2.491293e+01    8.171908e-01
  2.502406e+01    7.895079e-01
  2.513519e+01    8.295951e-01
  2.524632e+01    8.544976e-01
  2.535745e+01    8.824788e-01
  2.546858e+01    9.634762e-01
  2.557971e+01    1.076457e+00
  2.569083e+01    1.366119e+00
  2.580196e+01    2.368230e+00
  2.591309e+01    5.937630e+00
  2.602422e+01    8.084620e+00
  2.613535e+01    3.023055e+00
  2.624648e+01    1.575797e+00
  2.635761e+01    1.123221e+00
  2.646874e+01    1.015518e+00
  2.657987e+01    9.530752e-01
  2.669100e+01    9.171039e-01
  2.680212e+01    9.128286e-01
  2.691325e+01    9.361675e-01
  2.702438e+01    1.043846e+00
  2.713551e+01    1.525741e+00
  2.724664e+01    2.533431e+00
  2.735777e+01    1.601219e+00
  2.746890e+01    1.036034e+00
  2.758003e+01    8.843001e-01
  2.769116e+01    8.478800e-01
  2.780229e+01    8.463745e-01
  2.791342e+01    8.288805e-01
  2.802454e+01    7.689123e-01
  2.813567e+01    7.763526e-01
  2.824680e+01    7.866454e-01
  2.835793e+01    7.634528e-01
  2.846906e+01    7.922623e-01
  2.858019e+01    7.644635e-01
  2.869132e+01    7.640789e-01
  2.880245e+01    7.583509e-01
  2.891358e+01    7.784327e-01
  2.902471e+01    7.388361e-01
  2.913583e+01    7.471852e-01
  2.924696e+01    7.252140e-01
  2.935809e+01    7.471312e-01
  2.946922e+01    7.102236e-01
  2.958035e+01    7.264492e-01
  2.969148e+01    7.406096e-01
  2.980261e+01    7.226025e-01
  2.991374e+01    7.284546e-01
  3.002487e+01    7.308861e-01
  3.013600e+01    7.338077e-01
  3.024712e+01    7.073577e-01
  3.035825e+01    7.135433e-01
  3.046938e+01    6.919327e-01
  3.058051e+01    7.279621e-01
  3.069164e+01    7.251302e-01
  3.080277e+01    7.199172e-01
  3.091390e+01    7.164667e-01
  3.102503e+01    7.274124e-01
  3.113616e+01    7.311845e-01
  3.124729e+01    7.321661e-01
  3.135841e+01    7.522433e-01
  3.146954e+01    7.866262e-01
  3.158067e+01    8.126745e-01
  3.169180e+01    9.081473e-01
  3.180293e+01    1.260625e+00
  3.191406e+01    2.314828e+00
  3.202519e+01    1.838476e+00
  3.213632e+01    1.037989e+00
  3.224745e+01    8.398117e-01
  3.235858e+01    7.887504e-01
  3.246970e+01    7.093447e-01
  3.254908e+01    7.434160e-01

File: 2024-07-27_002_Ru-CGO-ex_Activtation_ramp_000002_data_000065.dat
# == pyFAI calibration ==
# Distance Sample to Detector: 0.4 m
# PONI: 9.750e-02, 1.135e-01 m
# Rotations: -0.000175 0.000000 -0.000000 rad
#
# == Fit2d calibration ==
# Distance Sample-beamCenter: 400.000 mm
# Center: x=1514.000, y=1300.000 pix
# Tilt: 0.010 deg  TiltPlanRot: 0.010 deg
#
# Detector Detector	 Spline= None	 PixelSize= 7.500e-05, 7.500e-05 m
#    Detector has a mask: False
#    Detector has a dark current: False
#    detector has a flat field: False
#
# Wavelength: 6.888e-11 m
# Mask applied: user provided
# Dark current applied: False
# Flat field applied: False
# Polarization factor: 0.99
# Normalization factor: 1.0
# --> /home/myspot/data/2024_07_Rosario/Ru-CGO-ex/2024-07-27_002_Ru-CGO-ex_Activtation_ramp_000002_data_000065.dat
#       q_nm^-1             I
  2.003187e-02    0.000000e+00
  1.311609e-01    8.888815e-02
  2.422899e-01    1.938864e-02
  3.534189e-01    2.515397e-02
  4.645479e-01    6.921338e-02
  5.756770e-01    2.917695e-02
  6.868060e-01    5.220712e-02
  7.979350e-01    1.615119e-01
  9.090640e-01    5.528641e-01
  1.020193e+00    1.070462e+00
  1.131322e+00    1.464606e+00
  1.242451e+00    2.282429e+00
  1.353580e+00    2.577594e+00
  1.464709e+00    2.794893e+00
  1.575838e+00    2.960119e+00
  1.686967e+00    2.849449e+00
  1.798096e+00    2.714112e+00
  1.909225e+00    2.713373e+00
  2.020354e+00    2.699850e+00
  2.131483e+00    2.789243e+00
  2.242612e+00    2.842280e+00
  2.353741e+00    2.803256e+00
  2.464870e+00    2.804101e+00
  2.575999e+00    2.852331e+00
  2.687128e+00    2.924541e+00
  2.798257e+00    2.815719e+00
  2.909386e+00    2.953855e+00
  3.020515e+00    2.899165e+00
  3.131644e+00    2.938678e+00
  3.242773e+00    2.816685e+00
  3.353902e+00    2.973319e+00
  3.465031e+00    3.011867e+00
  3.576160e+00    2.986128e+00
  3.687289e+00    3.009885e+00
  3.798418e+00    2.969865e+00
  3.909547e+00    3.013854e+00
  4.020676e+00    2.989794e+00
  4.131806e+00    3.041017e+00
  4.242935e+00    3.008449e+00
  4.354064e+00    3.052376e+00
  4.465193e+00    3.022742e+00
  4.576322e+00    3.044300e+00
  4.687451e+00    3.025502e+00
  4.798580e+00    3.151631e+00
  4.909709e+00    3.023588e+00
  5.020838e+00    3.074321e+00
  5.131967e+00    3.130151e+00
  5.243096e+00    3.071300e+00
  5.354225e+00    3.062013e+00
  5.465354e+00    3.107609e+00
  5.576483e+00    3.112688e+00
  5.687612e+00    3.033645e+00
  5.798741e+00    3.108001e+00
  5.909870e+00    3.022337e+00
  6.020999e+00    2.981493e+00
  6.132128e+00    3.060020e+00
  6.243257e+00    3.060296e+00
  6.354386e+00    2.977207e+00
  6.465515e+00    3.070049e+00
  6.576644e+00    3.011625e+00
  6.687773e+00    3.105305e+00
  6.798902e+00    3.016860e+00
  6.910031e+00    3.004774e+00
  7.021160e+00    2.986313e+00
  7.132289e+00    3.028801e+00
  7.243418e+00    3.064695e+00
  7.354547e+00    3.004003e+00
  7.465676e+00    2.993477e+00
  7.576805e+00    2.955303e+00
  7.687934e+00    2.946321e+00
  7.799063e+00    2.948195e+00
  7.910192e+00    2.897689e+00
  8.021321e+00    2.990437e+00
  8.132450e+00    2.899805e+00
  8.243579e+00    2.992785e+00
  8.354708e+00    2.898690e+00
  8.465837e+00    2.878009e+00
  8.576966e+00    2.924767e+00
  8.688095e+00    2.831076e+00
  8.799224e+00    2.858449e+00
  8.910353e+00    2.883270e+00
  9.021482e+00    2.839145e+00
  9.132611e+00    2.837642e+00
  9.243740e+00    2.777210e+00
  9.354869e+00    2.795879e+00
  9.465998e+00    2.765704e+00
  9.577127e+00    2.789111e+00
  9.688256e+00    2.709423e+00
  9.799385e+00    2.693938e+00
  9.910514e+00    2.686744e+00
  1.002164e+01    2.653693e+00
  1.013277e+01    2.649697e+00
  1.024390e+01    2.682856e+00
  1.035503e+01    2.650228e+00
  1.046616e+01    2.598475e+00
  1.057729e+01    2.609159e+00
  1.068842e+01    2.555410e+00
  1.079955e+01    2.536873e+00
  1.091068e+01    2.537642e+00
  1.102180e+01    2.488926e+00
  1.113293e+01    2.447246e+00
  1.124406e+01    2.467788e+00
  1.135519e+01    2.426081e+00
  1.146632e+01    2.425054e+00
  1.157745e+01    2.359871e+00
  1.168858e+01    2.369809e+00
  1.179971e+01    2.396689e+00
  1.191084e+01    2.339964e+00
  1.202197e+01    2.279770e+00
  1.213309e+01    2.285658e+00
  1.224422e+01    2.289708e+00
  1.235535e+01    2.336892e+00
  1.246648e+01    2.358674e+00
  1.257761e+01    2.342197e+00
  1.268874e+01    2.496321e+00
  1.279987e+01    2.609220e+00
  1.291100e+01    3.291612e+00
  1.302213e+01    5.954200e+00
  1.313326e+01    1.497789e+01
  1.324438e+01    1.444165e+01
  1.335551e+01    4.950267e+00
  1.346664e+01    3.043889e+00
  1.357777e+01    2.534892e+00
  1.368890e+01    2.276022e+00
  1.380003e+01    2.227335e+00
  1.391116e+01    2.136332e+00
  1.402229e+01    2.047532e+00
  1.413342e+01    2.019605e+00
  1.424455e+01    2.011098e+00
  1.435568e+01    1.962598e+00
  1.446680e+01    1.933176e+00
  1.457793e+01    1.944685e+00
  1.468906e+01    1.895682e+00
  1.480019e+01    1.909979e+00
  1.491132e+01    1.977554e+00
  1.502245e+01    2.213452e+00
  1.513358e+01    3.328287e+00
  1.524471e+01    5.934316e+00
  1.535584e+01    4.520057e+00
  1.546697e+01    2.419922e+00
  1.557809e+01    1.917160e+00
  1.568922e+01    1.782914e+00
  1.580035e+01    1.687416e+00
  1.591148e+01    1.674187e+00
  1.602261e+01    1.606617e+00
  1.613374e+01    1.558026e+00
  1.624487e+01    1.578416e+00
  1.635600e+01    1.523399e+00
  1.646713e+01    1.520716e+00
  1.657826e+01    1.494434e+00
  1.668938e+01    1.456594e+00
  1.680051e+01    1.458852e+00
  1.691164e+01    1.424491e+00
  1.702277e+01    1.388968e+00
  1.713390e+01    1.408157e+00
  1.724503e+01    1.431124e+00
  1.735616e+01    1.379626e+00
  1.746729e+01    1.348456e+00
  1.757842e+01    1.359913e+00
  1.768955e+01    1.369325e+00
  1.780067e+01    1.327684e+00
  1.791180e+01    1.309403e+00
  1.802293e+01    1.307392e+00
  1.813406e+01    1.288860e+00
  1.824519e+01    1.267864e+00
  1.835632e+01    1.271812e+00
  1.846745e+01    1.271695e+00
  1.857858e+01    1.275202e+00
  1.868971e+01    1.221361e+00
  1.880084e+01    1.211947e+00
  1.891196e+01    1.218719e+00
  1.902309e+01    1.210418e+00
  1.913422e+01    1.232117e+00
  1.924535e+01    1.216457e+00
  1.935648e+01    1.193364e+00
  1.946761e+01    1.178515e+00
  1.957874e+01    1.144503e+00
  1.968987e+01    1.158592e+00
  1.980100e+01    1.161694e+00
  1.991213e+01    1.131766e+00
  2.002325e+01    1.124231e+00
  2.013438e+01    1.113353e+00
  2.024551e+01    1.097088e+00
  2.035664e+01    1.076759e+00
  2.046777e+01    1.107893e+00
  2.057890e+01    1.117200e+00
  2.069003e+01    1.083984e+00
  2.080116e+01    1.102674e+00
  2.091229e+01    1.086971e+00
  2.102342e+01    1.063404e+00
  2.113455e+01    1.100047e+00
  2.124567e+01    1.115154e+00
  2.135680e+01    1.143297e+00
  2.146793e+01    1.249035e+00
  2.157906e+01    1.448175e+00
  2.169019e+01    2.171924e+00
  2.180132e+01    5.161341e+00
  2.191245e+01    1.022069e+01
  2.202358e+01    5.070810e+00
  2.213471e+01    2.103860e+00
  2.224584e+01    1.419217e+00
  2.235696e+01    1.168197e+00
  2.246809e+01    1.091478e+00
  2.257922e+01    1.000485e+00
  2.269035e+01    9.886827e-01
  2.280148e+01    9.346272e-01
  2.291261e+01    9.366850e-01
  2.302374e+01    9.076731e-01
  2.313487e+01    8.908690e-01
  2.324600e+01    8.857802e-01
  2.335713e+01    8.630208e-01
  2.346825e+01    8.539481e-01
  2.357938e+01    8.406826e-01
  2.369051e+01    8.343952e-01
  2.380164e+01    8.146272e-01
  2.391277e+01    7.954738e-01
  2.402390e+01    7.950919e-01
  2.413503e+01    7.836646e-01
  2.424616e+01    7.853540e-01
  2.435729e+01    7.951852e-01
  2.446842e+01    8.119356e-01
  2.457954e+01    8.143993e-01
  2.469067e+01    7.825559e-01
  2.480180e+01    8.021470e-01
  2.491293e+01    8.045643e-01
  2.502406e+01    8.146383e-01
  2.513519e+01    8.310111e-01
  2.524632e+01    8.489534e-01
  2.535745e+01    8.860931e-01
  2.546858e+01    9.526851e-01
  2.557971e+01    1.047939e+00
  2.569083e+01    1.352658e+00
  2.580196e+01    2.385967e+00
  2.591309e+01    5.840108e+00
  2.602422e+01    7.930393e+00
  2.613535e+01    2.943087e+00
  2.624648e+01    1.525084e+00
  2.635761e+01    1.128586e+00
  2.646874e+01    1.000091e+00
  2.657987e+01    9.276054e-01
  2.669100e+01    9.014716e-01
  2.680212e+01    9.113317e-01
  2.691325e+01    9.391904e-01
  2.702438e+01    1.026369e+00
  2.713551e+01    1.483129e+00
  2.724664e+01    2.460308e+00
  2.735777e+01    1.571097e+00
  2.746890e+01    1.063199e+00
  2.758003e+01    8.912601e-01
  2.769116e+01    8.399610e-01
  2.780229e+01    8.224961e-01
  2.791342e+01    8.118921e-01
  2.802454e+01    7.727189e-01
  2.813567e+01    7.767932e-01
  2.824680e+01    7.805558e-01
  2.835793e+01    8.005647e-01
  2.846906e+01    7.686400e-01
  2.858019e+01    7.460982e-01
  2.869132e+01    7.482365e-01
  2.880245e+01    7.551072e-01
  2.891358e+01    7.594321e-01
  2.902471e+01    7.257428e-01
  2.913583e+01    7.547928e-01
  2.924696e+01    7.398909e-01
  2.935809e+01    7.280741e-01
  2.946922e+01    7.375501e-01
  2.958035e+01    7.247360e-01
  2.969148e+01    7.191944e-01
  2.980261e+01    7.348730e-01
  2.991374e+01    7.190642e-01
  3.002487e+01    7.399274e-01
  3.013600e+01    7.204794e-01
  3.024712e+01    7.111813e-01
  3.035825e+01    7.037866e-01
  3.046938e+01    7.385280e-01
  3.058051e+01    7.108602e-01
  3.069164e+01    7.231349e-01
  3.080277e+01    6.953730e-01
  3.091390e+01    7.471065e-01
  3.102503e+01    7.138613e-01
  3.113616e+01    7.330163e-01
  3.124729e+01    7.363624e-01
  3.135841e+01    7.292250e-01
  3.146954e+01    7.670657e-01
  3.158067e+01    8.119888e-01
  3.169180e+01    9.001901e-01
  3.180293e+01    1.277714e+00
  3.191406e+01    2.331880e+00
  3.202519e+01    1.837793e+00
  3.213632e+01    1.028648e+00
  3.224745e+01    8.188470e-01
  3.235858e+01    7.549332e-01
  3.246970e+01    7.268046e-01
  3.254908e+01    7.489226e-01