Folder: myspot_2024_07/XRD/Activation ramp (part 30)

File: 2024-07-27_002_Ru-CGO-ex_Activtation_ramp_000002_data_000134.dat
# == pyFAI calibration ==
# Distance Sample to Detector: 0.4 m
# PONI: 9.750e-02, 1.135e-01 m
# Rotations: -0.000175 0.000000 -0.000000 rad
#
# == Fit2d calibration ==
# Distance Sample-beamCenter: 400.000 mm
# Center: x=1514.000, y=1300.000 pix
# Tilt: 0.010 deg  TiltPlanRot: 0.010 deg
#
# Detector Detector	 Spline= None	 PixelSize= 7.500e-05, 7.500e-05 m
#    Detector has a mask: False
#    Detector has a dark current: False
#    detector has a flat field: False
#
# Wavelength: 6.888e-11 m
# Mask applied: user provided
# Dark current applied: False
# Flat field applied: False
# Polarization factor: 0.99
# Normalization factor: 1.0
# --> /home/myspot/data/2024_07_Rosario/Ru-CGO-ex/2024-07-27_002_Ru-CGO-ex_Activtation_ramp_000002_data_000134.dat
#       q_nm^-1             I
  2.003187e-02    0.000000e+00
  1.311609e-01    1.026818e-02
  2.422899e-01    1.116243e-02
  3.534189e-01    3.999700e-02
  4.645479e-01    8.420092e-03
  5.756770e-01    5.625787e-02
  6.868060e-01    3.706365e-02
  7.979350e-01    1.080370e-01
  9.090640e-01    5.231436e-01
  1.020193e+00    1.122128e+00
  1.131322e+00    1.478264e+00
  1.242451e+00    2.197795e+00
  1.353580e+00    2.545449e+00
  1.464709e+00    2.596280e+00
  1.575838e+00    2.924131e+00
  1.686967e+00    2.862079e+00
  1.798096e+00    2.728463e+00
  1.909225e+00    2.715955e+00
  2.020354e+00    2.745737e+00
  2.131483e+00    2.756812e+00
  2.242612e+00    2.719473e+00
  2.353741e+00    2.732443e+00
  2.464870e+00    2.745078e+00
  2.575999e+00    2.762378e+00
  2.687128e+00    2.809091e+00
  2.798257e+00    2.859581e+00
  2.909386e+00    2.859035e+00
  3.020515e+00    2.783971e+00
  3.131644e+00    2.800497e+00
  3.242773e+00    2.924348e+00
  3.353902e+00    2.853314e+00
  3.465031e+00    2.909272e+00
  3.576160e+00    2.984377e+00
  3.687289e+00    2.962558e+00
  3.798418e+00    2.947081e+00
  3.909547e+00    2.998578e+00
  4.020676e+00    2.977912e+00
  4.131806e+00    2.899217e+00
  4.242935e+00    3.008365e+00
  4.354064e+00    3.063296e+00
  4.465193e+00    3.057631e+00
  4.576322e+00    2.968439e+00
  4.687451e+00    3.026808e+00
  4.798580e+00    3.051593e+00
  4.909709e+00    3.123313e+00
  5.020838e+00    3.109532e+00
  5.131967e+00    3.133452e+00
  5.243096e+00    3.109605e+00
  5.354225e+00    3.094568e+00
  5.465354e+00    3.012242e+00
  5.576483e+00    3.042531e+00
  5.687612e+00    3.120839e+00
  5.798741e+00    2.966287e+00
  5.909870e+00    2.900211e+00
  6.020999e+00    2.957861e+00
  6.132128e+00    3.027416e+00
  6.243257e+00    3.059535e+00
  6.354386e+00    3.018917e+00
  6.465515e+00    2.976384e+00
  6.576644e+00    3.043477e+00
  6.687773e+00    2.974522e+00
  6.798902e+00    2.989908e+00
  6.910031e+00    3.001614e+00
  7.021160e+00    2.970543e+00
  7.132289e+00    2.927778e+00
  7.243418e+00    2.967483e+00
  7.354547e+00    2.945805e+00
  7.465676e+00    2.983790e+00
  7.576805e+00    2.989161e+00
  7.687934e+00    2.965579e+00
  7.799063e+00    2.953217e+00
  7.910192e+00    2.875008e+00
  8.021321e+00    2.841319e+00
  8.132450e+00    2.874782e+00
  8.243579e+00    2.932437e+00
  8.354708e+00    2.863371e+00
  8.465837e+00    2.827764e+00
  8.576966e+00    2.844923e+00
  8.688095e+00    2.811654e+00
  8.799224e+00    2.821901e+00
  8.910353e+00    2.843648e+00
  9.021482e+00    2.785107e+00
  9.132611e+00    2.812816e+00
  9.243740e+00    2.702970e+00
  9.354869e+00    2.737218e+00
  9.465998e+00    2.748304e+00
  9.577127e+00    2.729857e+00
  9.688256e+00    2.719609e+00
  9.799385e+00    2.674510e+00
  9.910514e+00    2.602197e+00
  1.002164e+01    2.678123e+00
  1.013277e+01    2.690732e+00
  1.024390e+01    2.652585e+00
  1.035503e+01    2.609233e+00
  1.046616e+01    2.605975e+00
  1.057729e+01    2.533998e+00
  1.068842e+01    2.548797e+00
  1.079955e+01    2.477373e+00
  1.091068e+01    2.463823e+00
  1.102180e+01    2.481004e+00
  1.113293e+01    2.470245e+00
  1.124406e+01    2.455958e+00
  1.135519e+01    2.396206e+00
  1.146632e+01    2.396989e+00
  1.157745e+01    2.374368e+00
  1.168858e+01    2.390421e+00
  1.179971e+01    2.323377e+00
  1.191084e+01    2.326164e+00
  1.202197e+01    2.304332e+00
  1.213309e+01    2.292962e+00
  1.224422e+01    2.319848e+00
  1.235535e+01    2.284244e+00
  1.246648e+01    2.329057e+00
  1.257761e+01    2.373678e+00
  1.268874e+01    2.428373e+00
  1.279987e+01    2.648774e+00
  1.291100e+01    3.293532e+00
  1.302213e+01    6.131668e+00
  1.313326e+01    1.460007e+01
  1.324438e+01    1.183867e+01
  1.335551e+01    4.312360e+00
  1.346664e+01    2.860308e+00
  1.357777e+01    2.415836e+00
  1.368890e+01    2.288563e+00
  1.380003e+01    2.111087e+00
  1.391116e+01    2.095551e+00
  1.402229e+01    2.007222e+00
  1.413342e+01    1.938439e+00
  1.424455e+01    1.954846e+00
  1.435568e+01    1.953235e+00
  1.446680e+01    1.935814e+00
  1.457793e+01    1.909175e+00
  1.468906e+01    1.911271e+00
  1.480019e+01    1.901308e+00
  1.491132e+01    1.965087e+00
  1.502245e+01    2.244467e+00
  1.513358e+01    3.422447e+00
  1.524471e+01    5.695702e+00
  1.535584e+01    3.771764e+00
  1.546697e+01    2.255912e+00
  1.557809e+01    1.900988e+00
  1.568922e+01    1.742504e+00
  1.580035e+01    1.638255e+00
  1.591148e+01    1.647035e+00
  1.602261e+01    1.587330e+00
  1.613374e+01    1.595334e+00
  1.624487e+01    1.545286e+00
  1.635600e+01    1.490720e+00
  1.646713e+01    1.518319e+00
  1.657826e+01    1.485882e+00
  1.668938e+01    1.491891e+00
  1.680051e+01    1.474466e+00
  1.691164e+01    1.463151e+00
  1.702277e+01    1.446561e+00
  1.713390e+01    1.394243e+00
  1.724503e+01    1.387237e+00
  1.735616e+01    1.378266e+00
  1.746729e+01    1.372438e+00
  1.757842e+01    1.352152e+00
  1.768955e+01    1.292525e+00
  1.780067e+01    1.365878e+00
  1.791180e+01    1.292594e+00
  1.802293e+01    1.285587e+00
  1.813406e+01    1.317501e+00
  1.824519e+01    1.292479e+00
  1.835632e+01    1.270753e+00
  1.846745e+01    1.240660e+00
  1.857858e+01    1.242395e+00
  1.868971e+01    1.179075e+00
  1.880084e+01    1.194905e+00
  1.891196e+01    1.192367e+00
  1.902309e+01    1.189193e+00
  1.913422e+01    1.196186e+00
  1.924535e+01    1.200753e+00
  1.935648e+01    1.171985e+00
  1.946761e+01    1.139451e+00
  1.957874e+01    1.157218e+00
  1.968987e+01    1.103567e+00
  1.980100e+01    1.140687e+00
  1.991213e+01    1.110813e+00
  2.002325e+01    1.117149e+00
  2.013438e+01    1.082528e+00
  2.024551e+01    1.070483e+00
  2.035664e+01    1.072091e+00
  2.046777e+01    1.084011e+00
  2.057890e+01    1.065935e+00
  2.069003e+01    1.063801e+00
  2.080116e+01    1.075749e+00
  2.091229e+01    1.059739e+00
  2.102342e+01    1.089445e+00
  2.113455e+01    1.097830e+00
  2.124567e+01    1.096711e+00
  2.135680e+01    1.143016e+00
  2.146793e+01    1.226256e+00
  2.157906e+01    1.486296e+00
  2.169019e+01    2.298512e+00
  2.180132e+01    5.476126e+00
  2.191245e+01    9.299853e+00
  2.202358e+01    3.864807e+00
  2.213471e+01    1.806058e+00
  2.224584e+01    1.284731e+00
  2.235696e+01    1.134990e+00
  2.246809e+01    1.029776e+00
  2.257922e+01    9.990091e-01
  2.269035e+01    9.617088e-01
  2.280148e+01    9.194789e-01
  2.291261e+01    9.241837e-01
  2.302374e+01    8.949573e-01
  2.313487e+01    8.675902e-01
  2.324600e+01    8.546757e-01
  2.335713e+01    8.461455e-01
  2.346825e+01    8.519534e-01
  2.357938e+01    8.322081e-01
  2.369051e+01    8.209932e-01
  2.380164e+01    8.224082e-01
  2.391277e+01    7.749566e-01
  2.402390e+01    7.856287e-01
  2.413503e+01    7.540056e-01
  2.424616e+01    7.639531e-01
  2.435729e+01    7.975632e-01
  2.446842e+01    7.719250e-01
  2.457954e+01    7.952555e-01
  2.469067e+01    7.657090e-01
  2.480180e+01    7.980383e-01
  2.491293e+01    7.918084e-01
  2.502406e+01    7.946751e-01
  2.513519e+01    8.066107e-01
  2.524632e+01    8.664026e-01
  2.535745e+01    8.885661e-01
  2.546858e+01    9.324356e-01
  2.557971e+01    1.062569e+00
  2.569083e+01    1.414123e+00
  2.580196e+01    2.586873e+00
  2.591309e+01    6.315519e+00
  2.602422e+01    6.106380e+00
  2.613535e+01    2.267239e+00
  2.624648e+01    1.299406e+00
  2.635761e+01    1.045459e+00
  2.646874e+01    9.278618e-01
  2.657987e+01    8.943888e-01
  2.669100e+01    9.118546e-01
  2.680212e+01    8.872964e-01
  2.691325e+01    9.271511e-01
  2.702438e+01    1.037340e+00
  2.713551e+01    1.638445e+00
  2.724664e+01    2.244855e+00
  2.735777e+01    1.281821e+00
  2.746890e+01    9.506828e-01
  2.758003e+01    8.852669e-01
  2.769116e+01    8.325387e-01
  2.780229e+01    8.126974e-01
  2.791342e+01    7.756384e-01
  2.802454e+01    7.822406e-01
  2.813567e+01    7.706822e-01
  2.824680e+01    7.416019e-01
  2.835793e+01    7.484525e-01
  2.846906e+01    7.463387e-01
  2.858019e+01    7.264175e-01
  2.869132e+01    7.368639e-01
  2.880245e+01    7.421381e-01
  2.891358e+01    7.324862e-01
  2.902471e+01    7.202893e-01
  2.913583e+01    7.212313e-01
  2.924696e+01    7.391679e-01
  2.935809e+01    7.213095e-01
  2.946922e+01    7.201951e-01
  2.958035e+01    7.264017e-01
  2.969148e+01    7.032298e-01
  2.980261e+01    7.499476e-01
  2.991374e+01    7.077910e-01
  3.002487e+01    7.263151e-01
  3.013600e+01    6.918949e-01
  3.024712e+01    7.191585e-01
  3.035825e+01    6.865438e-01
  3.046938e+01    7.143593e-01
  3.058051e+01    7.123280e-01
  3.069164e+01    6.967589e-01
  3.080277e+01    7.111242e-01
  3.091390e+01    7.258347e-01
  3.102503e+01    7.278990e-01
  3.113616e+01    7.373743e-01
  3.124729e+01    7.387242e-01
  3.135841e+01    7.155265e-01
  3.146954e+01    7.680668e-01
  3.158067e+01    7.864938e-01
  3.169180e+01    9.217435e-01
  3.180293e+01    1.353582e+00
  3.191406e+01    2.197353e+00
  3.202519e+01    1.404834e+00
  3.213632e+01    8.934840e-01
  3.224745e+01    7.738824e-01
  3.235858e+01    7.398277e-01
  3.246970e+01    7.411647e-01
  3.254908e+01    7.058287e-01

File: 2024-07-27_002_Ru-CGO-ex_Activtation_ramp_000002_data_000142.dat
# == pyFAI calibration ==
# Distance Sample to Detector: 0.4 m
# PONI: 9.750e-02, 1.135e-01 m
# Rotations: -0.000175 0.000000 -0.000000 rad
#
# == Fit2d calibration ==
# Distance Sample-beamCenter: 400.000 mm
# Center: x=1514.000, y=1300.000 pix
# Tilt: 0.010 deg  TiltPlanRot: 0.010 deg
#
# Detector Detector	 Spline= None	 PixelSize= 7.500e-05, 7.500e-05 m
#    Detector has a mask: False
#    Detector has a dark current: False
#    detector has a flat field: False
#
# Wavelength: 6.888e-11 m
# Mask applied: user provided
# Dark current applied: False
# Flat field applied: False
# Polarization factor: 0.99
# Normalization factor: 1.0
# --> /home/myspot/data/2024_07_Rosario/Ru-CGO-ex/2024-07-27_002_Ru-CGO-ex_Activtation_ramp_000002_data_000142.dat
#       q_nm^-1             I
  2.003187e-02    4.391690e-01
  1.311609e-01    3.549711e-02
  2.422899e-01    1.100976e-02
  3.534189e-01    7.050605e-03
  4.645479e-01    7.822751e-02
  5.756770e-01    3.939323e-02
  6.868060e-01    2.565473e-02
  7.979350e-01    1.266212e-01
  9.090640e-01    6.367234e-01
  1.020193e+00    1.077891e+00
  1.131322e+00    1.477614e+00
  1.242451e+00    2.110265e+00
  1.353580e+00    2.403062e+00
  1.464709e+00    2.743920e+00
  1.575838e+00    2.992027e+00
  1.686967e+00    2.696659e+00
  1.798096e+00    2.650294e+00
  1.909225e+00    2.616130e+00
  2.020354e+00    2.801012e+00
  2.131483e+00    2.760571e+00
  2.242612e+00    2.667706e+00
  2.353741e+00    2.739945e+00
  2.464870e+00    2.773315e+00
  2.575999e+00    2.663684e+00
  2.687128e+00    2.864194e+00
  2.798257e+00    2.798558e+00
  2.909386e+00    2.833969e+00
  3.020515e+00    2.841594e+00
  3.131644e+00    2.793664e+00
  3.242773e+00    2.961175e+00
  3.353902e+00    2.879049e+00
  3.465031e+00    2.926333e+00
  3.576160e+00    3.070715e+00
  3.687289e+00    3.003602e+00
  3.798418e+00    3.006074e+00
  3.909547e+00    3.048085e+00
  4.020676e+00    3.055633e+00
  4.131806e+00    2.965938e+00
  4.242935e+00    2.983219e+00
  4.354064e+00    3.020189e+00
  4.465193e+00    3.077002e+00
  4.576322e+00    3.041618e+00
  4.687451e+00    3.137979e+00
  4.798580e+00    2.988432e+00
  4.909709e+00    3.100174e+00
  5.020838e+00    3.090602e+00
  5.131967e+00    3.087061e+00
  5.243096e+00    3.077214e+00
  5.354225e+00    3.132848e+00
  5.465354e+00    2.980156e+00
  5.576483e+00    2.992923e+00
  5.687612e+00    3.068269e+00
  5.798741e+00    2.949852e+00
  5.909870e+00    2.936332e+00
  6.020999e+00    3.031600e+00
  6.132128e+00    2.987181e+00
  6.243257e+00    3.041878e+00
  6.354386e+00    3.092492e+00
  6.465515e+00    3.017932e+00
  6.576644e+00    3.003644e+00
  6.687773e+00    2.994699e+00
  6.798902e+00    2.975769e+00
  6.910031e+00    3.001951e+00
  7.021160e+00    2.988448e+00
  7.132289e+00    3.019984e+00
  7.243418e+00    2.984334e+00
  7.354547e+00    2.936584e+00
  7.465676e+00    2.992576e+00
  7.576805e+00    2.962311e+00
  7.687934e+00    2.934056e+00
  7.799063e+00    2.923378e+00
  7.910192e+00    2.839613e+00
  8.021321e+00    2.909225e+00
  8.132450e+00    2.905113e+00
  8.243579e+00    3.023148e+00
  8.354708e+00    2.945245e+00
  8.465837e+00    2.777174e+00
  8.576966e+00    2.829729e+00
  8.688095e+00    2.833393e+00
  8.799224e+00    2.771955e+00
  8.910353e+00    2.686044e+00
  9.021482e+00    2.840695e+00
  9.132611e+00    2.774214e+00
  9.243740e+00    2.760874e+00
  9.354869e+00    2.722034e+00
  9.465998e+00    2.781874e+00
  9.577127e+00    2.762368e+00
  9.688256e+00    2.729661e+00
  9.799385e+00    2.662288e+00
  9.910514e+00    2.670212e+00
  1.002164e+01    2.619479e+00
  1.013277e+01    2.645709e+00
  1.024390e+01    2.607702e+00
  1.035503e+01    2.592740e+00
  1.046616e+01    2.581030e+00
  1.057729e+01    2.617778e+00
  1.068842e+01    2.529727e+00
  1.079955e+01    2.467344e+00
  1.091068e+01    2.447959e+00
  1.102180e+01    2.479712e+00
  1.113293e+01    2.484342e+00
  1.124406e+01    2.407160e+00
  1.135519e+01    2.384009e+00
  1.146632e+01    2.354260e+00
  1.157745e+01    2.391280e+00
  1.168858e+01    2.390360e+00
  1.179971e+01    2.327270e+00
  1.191084e+01    2.294397e+00
  1.202197e+01    2.326796e+00
  1.213309e+01    2.282082e+00
  1.224422e+01    2.290073e+00
  1.235535e+01    2.321095e+00
  1.246648e+01    2.326270e+00
  1.257761e+01    2.370216e+00
  1.268874e+01    2.430624e+00
  1.279987e+01    2.669871e+00
  1.291100e+01    3.270251e+00
  1.302213e+01    6.098052e+00
  1.313326e+01    1.445222e+01
  1.324438e+01    1.150220e+01
  1.335551e+01    4.302100e+00
  1.346664e+01    2.858799e+00
  1.357777e+01    2.402208e+00
  1.368890e+01    2.242635e+00
  1.380003e+01    2.148661e+00
  1.391116e+01    2.070303e+00
  1.402229e+01    2.051645e+00
  1.413342e+01    1.961317e+00
  1.424455e+01    1.988104e+00
  1.435568e+01    1.938876e+00
  1.446680e+01    1.920994e+00
  1.457793e+01    1.928968e+00
  1.468906e+01    1.909332e+00
  1.480019e+01    1.929782e+00
  1.491132e+01    1.934307e+00
  1.502245e+01    2.173090e+00
  1.513358e+01    3.407579e+00
  1.524471e+01    5.643395e+00
  1.535584e+01    3.755751e+00
  1.546697e+01    2.177497e+00
  1.557809e+01    1.821533e+00
  1.568922e+01    1.756054e+00
  1.580035e+01    1.632638e+00
  1.591148e+01    1.646007e+00
  1.602261e+01    1.636893e+00
  1.613374e+01    1.590127e+00
  1.624487e+01    1.550571e+00
  1.635600e+01    1.511395e+00
  1.646713e+01    1.502759e+00
  1.657826e+01    1.488658e+00
  1.668938e+01    1.442783e+00
  1.680051e+01    1.475024e+00
  1.691164e+01    1.434035e+00
  1.702277e+01    1.432959e+00
  1.713390e+01    1.408542e+00
  1.724503e+01    1.416579e+00
  1.735616e+01    1.368091e+00
  1.746729e+01    1.384792e+00
  1.757842e+01    1.345143e+00
  1.768955e+01    1.339380e+00
  1.780067e+01    1.310265e+00
  1.791180e+01    1.301344e+00
  1.802293e+01    1.276362e+00
  1.813406e+01    1.297554e+00
  1.824519e+01    1.258630e+00
  1.835632e+01    1.240704e+00
  1.846745e+01    1.218618e+00
  1.857858e+01    1.222953e+00
  1.868971e+01    1.194988e+00
  1.880084e+01    1.207759e+00
  1.891196e+01    1.202070e+00
  1.902309e+01    1.179262e+00
  1.913422e+01    1.170981e+00
  1.924535e+01    1.180193e+00
  1.935648e+01    1.172092e+00
  1.946761e+01    1.146398e+00
  1.957874e+01    1.156693e+00
  1.968987e+01    1.122373e+00
  1.980100e+01    1.119445e+00
  1.991213e+01    1.127087e+00
  2.002325e+01    1.109921e+00
  2.013438e+01    1.117144e+00
  2.024551e+01    1.079032e+00
  2.035664e+01    1.083915e+00
  2.046777e+01    1.078434e+00
  2.057890e+01    1.067685e+00
  2.069003e+01    1.083162e+00
  2.080116e+01    1.066288e+00
  2.091229e+01    1.084070e+00
  2.102342e+01    1.073024e+00
  2.113455e+01    1.086451e+00
  2.124567e+01    1.081898e+00
  2.135680e+01    1.144265e+00
  2.146793e+01    1.208153e+00
  2.157906e+01    1.467824e+00
  2.169019e+01    2.303947e+00
  2.180132e+01    5.457617e+00
  2.191245e+01    9.272443e+00
  2.202358e+01    3.803653e+00
  2.213471e+01    1.777833e+00
  2.224584e+01    1.309011e+00
  2.235696e+01    1.100344e+00
  2.246809e+01    1.021941e+00
  2.257922e+01    9.874168e-01
  2.269035e+01    9.399505e-01
  2.280148e+01    9.131688e-01
  2.291261e+01    9.156659e-01
  2.302374e+01    8.843958e-01
  2.313487e+01    8.724366e-01
  2.324600e+01    8.622937e-01
  2.335713e+01    8.641712e-01
  2.346825e+01    8.618496e-01
  2.357938e+01    8.600503e-01
  2.369051e+01    8.338053e-01
  2.380164e+01    8.071924e-01
  2.391277e+01    8.055832e-01
  2.402390e+01    7.683114e-01
  2.413503e+01    7.827088e-01
  2.424616e+01    7.734833e-01
  2.435729e+01    7.984822e-01
  2.446842e+01    7.788436e-01
  2.457954e+01    7.616767e-01
  2.469067e+01    8.123600e-01
  2.480180e+01    7.808251e-01
  2.491293e+01    7.974952e-01
  2.502406e+01    7.881507e-01
  2.513519e+01    7.857589e-01
  2.524632e+01    8.482009e-01
  2.535745e+01    8.757210e-01
  2.546858e+01    9.374655e-01
  2.557971e+01    1.063534e+00
  2.569083e+01    1.394341e+00
  2.580196e+01    2.564216e+00
  2.591309e+01    6.222406e+00
  2.602422e+01    5.978376e+00
  2.613535e+01    2.230190e+00
  2.624648e+01    1.324089e+00
  2.635761e+01    1.048435e+00
  2.646874e+01    9.248502e-01
  2.657987e+01    9.023700e-01
  2.669100e+01    8.680639e-01
  2.680212e+01    8.958694e-01
  2.691325e+01    9.446195e-01
  2.702438e+01    1.045136e+00
  2.713551e+01    1.597420e+00
  2.724664e+01    2.193611e+00
  2.735777e+01    1.304778e+00
  2.746890e+01    9.685586e-01
  2.758003e+01    8.509598e-01
  2.769116e+01    8.051569e-01
  2.780229e+01    7.904441e-01
  2.791342e+01    7.770025e-01
  2.802454e+01    7.467124e-01
  2.813567e+01    7.544686e-01
  2.824680e+01    7.575557e-01
  2.835793e+01    7.650272e-01
  2.846906e+01    7.330686e-01
  2.858019e+01    7.413278e-01
  2.869132e+01    7.576975e-01
  2.880245e+01    7.406695e-01
  2.891358e+01    7.516254e-01
  2.902471e+01    7.430438e-01
  2.913583e+01    7.481837e-01
  2.924696e+01    7.291732e-01
  2.935809e+01    6.999176e-01
  2.946922e+01    7.156332e-01
  2.958035e+01    7.200819e-01
  2.969148e+01    7.208223e-01
  2.980261e+01    7.372336e-01
  2.991374e+01    7.074288e-01
  3.002487e+01    7.385567e-01
  3.013600e+01    7.266644e-01
  3.024712e+01    7.000267e-01
  3.035825e+01    6.880966e-01
  3.046938e+01    6.919580e-01
  3.058051e+01    7.049662e-01
  3.069164e+01    7.131267e-01
  3.080277e+01    7.329173e-01
  3.091390e+01    7.154630e-01
  3.102503e+01    7.166302e-01
  3.113616e+01    7.061280e-01
  3.124729e+01    7.269989e-01
  3.135841e+01    7.561588e-01
  3.146954e+01    7.654337e-01
  3.158067e+01    7.824112e-01
  3.169180e+01    9.294159e-01
  3.180293e+01    1.366802e+00
  3.191406e+01    2.243583e+00
  3.202519e+01    1.405497e+00
  3.213632e+01    9.084768e-01
  3.224745e+01    7.864016e-01
  3.235858e+01    7.106929e-01
  3.246970e+01    7.554981e-01
  3.254908e+01    7.160656e-01