Folder: myspot_2024_07/XRD/Activation ramp (part 7)

File: 2024-07-27_002_Ru-CGO-ex_Activtation_ramp_000002_data_000025.dat
# == pyFAI calibration ==
# Distance Sample to Detector: 0.4 m
# PONI: 9.750e-02, 1.135e-01 m
# Rotations: -0.000175 0.000000 -0.000000 rad
#
# == Fit2d calibration ==
# Distance Sample-beamCenter: 400.000 mm
# Center: x=1514.000, y=1300.000 pix
# Tilt: 0.010 deg  TiltPlanRot: 0.010 deg
#
# Detector Detector	 Spline= None	 PixelSize= 7.500e-05, 7.500e-05 m
#    Detector has a mask: False
#    Detector has a dark current: False
#    detector has a flat field: False
#
# Wavelength: 6.888e-11 m
# Mask applied: user provided
# Dark current applied: False
# Flat field applied: False
# Polarization factor: 0.99
# Normalization factor: 1.0
# --> /home/myspot/data/2024_07_Rosario/Ru-CGO-ex/2024-07-27_002_Ru-CGO-ex_Activtation_ramp_000002_data_000025.dat
#       q_nm^-1             I
  2.003187e-02    7.712225e-02
  1.311609e-01    7.913126e-02
  2.422899e-01    8.874442e-02
  3.534189e-01    7.178511e-02
  4.645479e-01    4.359283e-02
  5.756770e-01    4.679898e-02
  6.868060e-01    5.388224e-02
  7.979350e-01    1.212840e-01
  9.090640e-01    5.258720e-01
  1.020193e+00    1.231880e+00
  1.131322e+00    1.399314e+00
  1.242451e+00    2.340387e+00
  1.353580e+00    2.678565e+00
  1.464709e+00    2.929898e+00
  1.575838e+00    3.145802e+00
  1.686967e+00    2.986641e+00
  1.798096e+00    2.882694e+00
  1.909225e+00    2.734447e+00
  2.020354e+00    2.696336e+00
  2.131483e+00    2.801797e+00
  2.242612e+00    2.763438e+00
  2.353741e+00    2.807093e+00
  2.464870e+00    2.833748e+00
  2.575999e+00    2.733228e+00
  2.687128e+00    2.795091e+00
  2.798257e+00    2.888158e+00
  2.909386e+00    2.900814e+00
  3.020515e+00    2.965394e+00
  3.131644e+00    2.959459e+00
  3.242773e+00    2.982435e+00
  3.353902e+00    2.943117e+00
  3.465031e+00    2.985877e+00
  3.576160e+00    2.921734e+00
  3.687289e+00    2.985832e+00
  3.798418e+00    3.094332e+00
  3.909547e+00    3.003685e+00
  4.020676e+00    2.989577e+00
  4.131806e+00    3.116050e+00
  4.242935e+00    3.092422e+00
  4.354064e+00    3.048393e+00
  4.465193e+00    3.053273e+00
  4.576322e+00    3.113608e+00
  4.687451e+00    3.100524e+00
  4.798580e+00    3.149741e+00
  4.909709e+00    3.183193e+00
  5.020838e+00    3.126054e+00
  5.131967e+00    3.160010e+00
  5.243096e+00    3.150394e+00
  5.354225e+00    3.110773e+00
  5.465354e+00    3.051334e+00
  5.576483e+00    3.133539e+00
  5.687612e+00    3.077820e+00
  5.798741e+00    3.118145e+00
  5.909870e+00    3.119657e+00
  6.020999e+00    2.982749e+00
  6.132128e+00    3.080777e+00
  6.243257e+00    3.066955e+00
  6.354386e+00    3.080715e+00
  6.465515e+00    2.969640e+00
  6.576644e+00    3.099273e+00
  6.687773e+00    3.062267e+00
  6.798902e+00    3.063163e+00
  6.910031e+00    3.039407e+00
  7.021160e+00    3.045997e+00
  7.132289e+00    3.013628e+00
  7.243418e+00    3.064955e+00
  7.354547e+00    2.982737e+00
  7.465676e+00    2.962884e+00
  7.576805e+00    2.961843e+00
  7.687934e+00    3.019834e+00
  7.799063e+00    2.918193e+00
  7.910192e+00    2.957543e+00
  8.021321e+00    2.897082e+00
  8.132450e+00    2.887841e+00
  8.243579e+00    3.039430e+00
  8.354708e+00    2.876948e+00
  8.465837e+00    2.963778e+00
  8.576966e+00    2.938804e+00
  8.688095e+00    2.902635e+00
  8.799224e+00    2.859074e+00
  8.910353e+00    2.813414e+00
  9.021482e+00    2.834163e+00
  9.132611e+00    2.811546e+00
  9.243740e+00    2.814676e+00
  9.354869e+00    2.816017e+00
  9.465998e+00    2.811582e+00
  9.577127e+00    2.707261e+00
  9.688256e+00    2.725278e+00
  9.799385e+00    2.697630e+00
  9.910514e+00    2.681124e+00
  1.002164e+01    2.646964e+00
  1.013277e+01    2.712426e+00
  1.024390e+01    2.644633e+00
  1.035503e+01    2.589585e+00
  1.046616e+01    2.600718e+00
  1.057729e+01    2.571777e+00
  1.068842e+01    2.612577e+00
  1.079955e+01    2.546417e+00
  1.091068e+01    2.490026e+00
  1.102180e+01    2.496375e+00
  1.113293e+01    2.478856e+00
  1.124406e+01    2.459398e+00
  1.135519e+01    2.437104e+00
  1.146632e+01    2.456777e+00
  1.157745e+01    2.423205e+00
  1.168858e+01    2.340142e+00
  1.179971e+01    2.397162e+00
  1.191084e+01    2.385726e+00
  1.202197e+01    2.362600e+00
  1.213309e+01    2.298778e+00
  1.224422e+01    2.298248e+00
  1.235535e+01    2.357177e+00
  1.246648e+01    2.284714e+00
  1.257761e+01    2.417950e+00
  1.268874e+01    2.535129e+00
  1.279987e+01    2.686844e+00
  1.291100e+01    3.303031e+00
  1.302213e+01    5.842228e+00
  1.313326e+01    1.507900e+01
  1.324438e+01    1.609644e+01
  1.335551e+01    5.448976e+00
  1.346664e+01    3.225694e+00
  1.357777e+01    2.579982e+00
  1.368890e+01    2.284092e+00
  1.380003e+01    2.226657e+00
  1.391116e+01    2.178215e+00
  1.402229e+01    2.103254e+00
  1.413342e+01    2.045533e+00
  1.424455e+01    1.995832e+00
  1.435568e+01    1.963655e+00
  1.446680e+01    1.960819e+00
  1.457793e+01    1.929131e+00
  1.468906e+01    1.893441e+00
  1.480019e+01    1.960361e+00
  1.491132e+01    1.976705e+00
  1.502245e+01    2.228623e+00
  1.513358e+01    3.291664e+00
  1.524471e+01    5.950965e+00
  1.535584e+01    4.927106e+00
  1.546697e+01    2.534947e+00
  1.557809e+01    1.919168e+00
  1.568922e+01    1.809588e+00
  1.580035e+01    1.688007e+00
  1.591148e+01    1.674273e+00
  1.602261e+01    1.649896e+00
  1.613374e+01    1.586014e+00
  1.624487e+01    1.575735e+00
  1.635600e+01    1.550722e+00
  1.646713e+01    1.525181e+00
  1.657826e+01    1.545320e+00
  1.668938e+01    1.502490e+00
  1.680051e+01    1.509988e+00
  1.691164e+01    1.474324e+00
  1.702277e+01    1.436153e+00
  1.713390e+01    1.427231e+00
  1.724503e+01    1.432683e+00
  1.735616e+01    1.407449e+00
  1.746729e+01    1.423497e+00
  1.757842e+01    1.377816e+00
  1.768955e+01    1.315362e+00
  1.780067e+01    1.359302e+00
  1.791180e+01    1.328257e+00
  1.802293e+01    1.315677e+00
  1.813406e+01    1.301527e+00
  1.824519e+01    1.298611e+00
  1.835632e+01    1.258486e+00
  1.846745e+01    1.310649e+00
  1.857858e+01    1.271425e+00
  1.868971e+01    1.230622e+00
  1.880084e+01    1.219029e+00
  1.891196e+01    1.221693e+00
  1.902309e+01    1.224826e+00
  1.913422e+01    1.204794e+00
  1.924535e+01    1.195805e+00
  1.935648e+01    1.186248e+00
  1.946761e+01    1.195674e+00
  1.957874e+01    1.151213e+00
  1.968987e+01    1.155214e+00
  1.980100e+01    1.142318e+00
  1.991213e+01    1.149397e+00
  2.002325e+01    1.123749e+00
  2.013438e+01    1.124558e+00
  2.024551e+01    1.106515e+00
  2.035664e+01    1.106639e+00
  2.046777e+01    1.109311e+00
  2.057890e+01    1.083333e+00
  2.069003e+01    1.130136e+00
  2.080116e+01    1.097021e+00
  2.091229e+01    1.106915e+00
  2.102342e+01    1.100220e+00
  2.113455e+01    1.085230e+00
  2.124567e+01    1.117013e+00
  2.135680e+01    1.168855e+00
  2.146793e+01    1.235767e+00
  2.157906e+01    1.457227e+00
  2.169019e+01    2.104635e+00
  2.180132e+01    4.877335e+00
  2.191245e+01    1.050729e+01
  2.202358e+01    6.053630e+00
  2.213471e+01    2.309979e+00
  2.224584e+01    1.484320e+00
  2.235696e+01    1.203752e+00
  2.246809e+01    1.077535e+00
  2.257922e+01    1.013927e+00
  2.269035e+01    9.909438e-01
  2.280148e+01    9.857051e-01
  2.291261e+01    9.257849e-01
  2.302374e+01    9.361764e-01
  2.313487e+01    8.885474e-01
  2.324600e+01    8.759862e-01
  2.335713e+01    8.693933e-01
  2.346825e+01    8.558367e-01
  2.357938e+01    8.654906e-01
  2.369051e+01    8.447946e-01
  2.380164e+01    8.021228e-01
  2.391277e+01    8.293568e-01
  2.402390e+01    7.897222e-01
  2.413503e+01    7.868557e-01
  2.424616e+01    7.741731e-01
  2.435729e+01    8.087854e-01
  2.446842e+01    7.951566e-01
  2.457954e+01    7.977492e-01
  2.469067e+01    8.074318e-01
  2.480180e+01    8.271611e-01
  2.491293e+01    7.899610e-01
  2.502406e+01    8.289165e-01
  2.513519e+01    8.209106e-01
  2.524632e+01    8.643215e-01
  2.535745e+01    8.907284e-01
  2.546858e+01    9.604440e-01
  2.557971e+01    1.060032e+00
  2.569083e+01    1.306978e+00
  2.580196e+01    2.225934e+00
  2.591309e+01    5.550382e+00
  2.602422e+01    8.879045e+00
  2.613535e+01    3.523123e+00
  2.624648e+01    1.710269e+00
  2.635761e+01    1.196730e+00
  2.646874e+01    1.006733e+00
  2.657987e+01    9.633345e-01
  2.669100e+01    9.416881e-01
  2.680212e+01    9.062369e-01
  2.691325e+01    9.292402e-01
  2.702438e+01    1.027471e+00
  2.713551e+01    1.429459e+00
  2.724664e+01    2.501273e+00
  2.735777e+01    1.758607e+00
  2.746890e+01    1.101213e+00
  2.758003e+01    9.131839e-01
  2.769116e+01    8.643165e-01
  2.780229e+01    8.576904e-01
  2.791342e+01    8.170080e-01
  2.802454e+01    8.296205e-01
  2.813567e+01    7.874928e-01
  2.824680e+01    7.915941e-01
  2.835793e+01    7.679539e-01
  2.846906e+01    7.783726e-01
  2.858019e+01    7.760714e-01
  2.869132e+01    7.644172e-01
  2.880245e+01    7.576120e-01
  2.891358e+01    7.649359e-01
  2.902471e+01    7.544004e-01
  2.913583e+01    7.670270e-01
  2.924696e+01    7.446275e-01
  2.935809e+01    7.527336e-01
  2.946922e+01    7.138704e-01
  2.958035e+01    7.168338e-01
  2.969148e+01    7.360013e-01
  2.980261e+01    7.280927e-01
  2.991374e+01    7.296751e-01
  3.002487e+01    7.542393e-01
  3.013600e+01    7.374530e-01
  3.024712e+01    7.345572e-01
  3.035825e+01    7.203754e-01
  3.046938e+01    7.318354e-01
  3.058051e+01    7.215676e-01
  3.069164e+01    7.353610e-01
  3.080277e+01    7.091240e-01
  3.091390e+01    7.287067e-01
  3.102503e+01    7.347789e-01
  3.113616e+01    7.284296e-01
  3.124729e+01    7.304004e-01
  3.135841e+01    7.453118e-01
  3.146954e+01    7.557826e-01
  3.158067e+01    8.018755e-01
  3.169180e+01    8.857309e-01
  3.180293e+01    1.178152e+00
  3.191406e+01    2.200379e+00
  3.202519e+01    2.112899e+00
  3.213632e+01    1.127814e+00
  3.224745e+01    8.775473e-01
  3.235858e+01    7.949215e-01
  3.246970e+01    7.592512e-01
  3.254908e+01    7.458548e-01

File: 2024-07-27_002_Ru-CGO-ex_Activtation_ramp_000002_data_000027.dat
# == pyFAI calibration ==
# Distance Sample to Detector: 0.4 m
# PONI: 9.750e-02, 1.135e-01 m
# Rotations: -0.000175 0.000000 -0.000000 rad
#
# == Fit2d calibration ==
# Distance Sample-beamCenter: 400.000 mm
# Center: x=1514.000, y=1300.000 pix
# Tilt: 0.010 deg  TiltPlanRot: 0.010 deg
#
# Detector Detector	 Spline= None	 PixelSize= 7.500e-05, 7.500e-05 m
#    Detector has a mask: False
#    Detector has a dark current: False
#    detector has a flat field: False
#
# Wavelength: 6.888e-11 m
# Mask applied: user provided
# Dark current applied: False
# Flat field applied: False
# Polarization factor: 0.99
# Normalization factor: 1.0
# --> /home/myspot/data/2024_07_Rosario/Ru-CGO-ex/2024-07-27_002_Ru-CGO-ex_Activtation_ramp_000002_data_000027.dat
#       q_nm^-1             I
  2.003187e-02    0.000000e+00
  1.311609e-01    1.646526e-02
  2.422899e-01    4.948209e-02
  3.534189e-01    6.150093e-02
  4.645479e-01    3.123751e-02
  5.756770e-01    3.345461e-02
  6.868060e-01    5.427661e-02
  7.979350e-01    1.314234e-01
  9.090640e-01    5.812591e-01
  1.020193e+00    1.163391e+00
  1.131322e+00    1.430582e+00
  1.242451e+00    2.215354e+00
  1.353580e+00    2.709245e+00
  1.464709e+00    2.963420e+00
  1.575838e+00    3.029053e+00
  1.686967e+00    2.919620e+00
  1.798096e+00    2.921286e+00
  1.909225e+00    2.891358e+00
  2.020354e+00    2.687990e+00
  2.131483e+00    2.836556e+00
  2.242612e+00    2.844121e+00
  2.353741e+00    2.803493e+00
  2.464870e+00    2.854997e+00
  2.575999e+00    2.974410e+00
  2.687128e+00    2.842872e+00
  2.798257e+00    2.913479e+00
  2.909386e+00    2.929741e+00
  3.020515e+00    2.980513e+00
  3.131644e+00    2.878150e+00
  3.242773e+00    2.904056e+00
  3.353902e+00    2.940526e+00
  3.465031e+00    2.990093e+00
  3.576160e+00    2.975879e+00
  3.687289e+00    2.967400e+00
  3.798418e+00    3.001642e+00
  3.909547e+00    2.962126e+00
  4.020676e+00    3.053180e+00
  4.131806e+00    3.150198e+00
  4.242935e+00    3.042293e+00
  4.354064e+00    3.087644e+00
  4.465193e+00    3.090498e+00
  4.576322e+00    3.126749e+00
  4.687451e+00    3.090836e+00
  4.798580e+00    3.138415e+00
  4.909709e+00    3.127376e+00
  5.020838e+00    3.195644e+00
  5.131967e+00    3.134000e+00
  5.243096e+00    3.189589e+00
  5.354225e+00    3.069688e+00
  5.465354e+00    3.074872e+00
  5.576483e+00    3.161489e+00
  5.687612e+00    3.083474e+00
  5.798741e+00    3.069376e+00
  5.909870e+00    3.066786e+00
  6.020999e+00    3.023897e+00
  6.132128e+00    3.111453e+00
  6.243257e+00    3.048112e+00
  6.354386e+00    3.125457e+00
  6.465515e+00    3.031012e+00
  6.576644e+00    2.959378e+00
  6.687773e+00    3.027468e+00
  6.798902e+00    3.093614e+00
  6.910031e+00    3.101087e+00
  7.021160e+00    3.110714e+00
  7.132289e+00    3.017581e+00
  7.243418e+00    3.072721e+00
  7.354547e+00    3.044282e+00
  7.465676e+00    3.028843e+00
  7.576805e+00    2.845248e+00
  7.687934e+00    2.929381e+00
  7.799063e+00    2.947725e+00
  7.910192e+00    2.934388e+00
  8.021321e+00    2.999995e+00
  8.132450e+00    2.958786e+00
  8.243579e+00    3.005080e+00
  8.354708e+00    2.993576e+00
  8.465837e+00    2.952127e+00
  8.576966e+00    2.931998e+00
  8.688095e+00    2.882459e+00
  8.799224e+00    2.887924e+00
  8.910353e+00    2.846467e+00
  9.021482e+00    2.860723e+00
  9.132611e+00    2.837833e+00
  9.243740e+00    2.819367e+00
  9.354869e+00    2.788396e+00
  9.465998e+00    2.780463e+00
  9.577127e+00    2.803647e+00
  9.688256e+00    2.774286e+00
  9.799385e+00    2.743658e+00
  9.910514e+00    2.687851e+00
  1.002164e+01    2.678840e+00
  1.013277e+01    2.669138e+00
  1.024390e+01    2.712466e+00
  1.035503e+01    2.651793e+00
  1.046616e+01    2.593368e+00
  1.057729e+01    2.589935e+00
  1.068842e+01    2.615305e+00
  1.079955e+01    2.574889e+00
  1.091068e+01    2.525845e+00
  1.102180e+01    2.526160e+00
  1.113293e+01    2.443024e+00
  1.124406e+01    2.509970e+00
  1.135519e+01    2.477225e+00
  1.146632e+01    2.437957e+00
  1.157745e+01    2.382345e+00
  1.168858e+01    2.391009e+00
  1.179971e+01    2.376419e+00
  1.191084e+01    2.397648e+00
  1.202197e+01    2.382195e+00
  1.213309e+01    2.386513e+00
  1.224422e+01    2.348603e+00
  1.235535e+01    2.370596e+00
  1.246648e+01    2.379676e+00
  1.257761e+01    2.406911e+00
  1.268874e+01    2.514272e+00
  1.279987e+01    2.666406e+00
  1.291100e+01    3.328965e+00
  1.302213e+01    5.861124e+00
  1.313326e+01    1.526628e+01
  1.324438e+01    1.605552e+01
  1.335551e+01    5.402879e+00
  1.346664e+01    3.221524e+00
  1.357777e+01    2.594697e+00
  1.368890e+01    2.354353e+00
  1.380003e+01    2.215104e+00
  1.391116e+01    2.150794e+00
  1.402229e+01    2.073094e+00
  1.413342e+01    2.029695e+00
  1.424455e+01    2.020277e+00
  1.435568e+01    1.968654e+00
  1.446680e+01    1.957700e+00
  1.457793e+01    1.950904e+00
  1.468906e+01    1.910466e+00
  1.480019e+01    1.944355e+00
  1.491132e+01    1.983284e+00
  1.502245e+01    2.242184e+00
  1.513358e+01    3.205622e+00
  1.524471e+01    6.020937e+00
  1.535584e+01    4.994604e+00
  1.546697e+01    2.472442e+00
  1.557809e+01    1.990264e+00
  1.568922e+01    1.786799e+00
  1.580035e+01    1.721866e+00
  1.591148e+01    1.669758e+00
  1.602261e+01    1.650074e+00
  1.613374e+01    1.650086e+00
  1.624487e+01    1.558327e+00
  1.635600e+01    1.591865e+00
  1.646713e+01    1.579160e+00
  1.657826e+01    1.527680e+00
  1.668938e+01    1.506870e+00
  1.680051e+01    1.477998e+00
  1.691164e+01    1.455158e+00
  1.702277e+01    1.473954e+00
  1.713390e+01    1.410629e+00
  1.724503e+01    1.431661e+00
  1.735616e+01    1.379475e+00
  1.746729e+01    1.391390e+00
  1.757842e+01    1.392305e+00
  1.768955e+01    1.366327e+00
  1.780067e+01    1.348151e+00
  1.791180e+01    1.342485e+00
  1.802293e+01    1.328600e+00
  1.813406e+01    1.306543e+00
  1.824519e+01    1.282908e+00
  1.835632e+01    1.302647e+00
  1.846745e+01    1.303655e+00
  1.857858e+01    1.253090e+00
  1.868971e+01    1.245950e+00
  1.880084e+01    1.229924e+00
  1.891196e+01    1.225687e+00
  1.902309e+01    1.226359e+00
  1.913422e+01    1.210220e+00
  1.924535e+01    1.205499e+00
  1.935648e+01    1.199547e+00
  1.946761e+01    1.164072e+00
  1.957874e+01    1.171880e+00
  1.968987e+01    1.148240e+00
  1.980100e+01    1.136762e+00
  1.991213e+01    1.122429e+00
  2.002325e+01    1.145014e+00
  2.013438e+01    1.142357e+00
  2.024551e+01    1.125773e+00
  2.035664e+01    1.116115e+00
  2.046777e+01    1.121614e+00
  2.057890e+01    1.094012e+00
  2.069003e+01    1.095884e+00
  2.080116e+01    1.113317e+00
  2.091229e+01    1.103732e+00
  2.102342e+01    1.104893e+00
  2.113455e+01    1.119273e+00
  2.124567e+01    1.138268e+00
  2.135680e+01    1.144913e+00
  2.146793e+01    1.258096e+00
  2.157906e+01    1.436537e+00
  2.169019e+01    2.121281e+00
  2.180132e+01    4.883900e+00
  2.191245e+01    1.054237e+01
  2.202358e+01    5.953177e+00
  2.213471e+01    2.313168e+00
  2.224584e+01    1.474123e+00
  2.235696e+01    1.201883e+00
  2.246809e+01    1.116793e+00
  2.257922e+01    1.021078e+00
  2.269035e+01    9.923564e-01
  2.280148e+01    9.583289e-01
  2.291261e+01    9.397334e-01
  2.302374e+01    9.144714e-01
  2.313487e+01    8.979614e-01
  2.324600e+01    8.969546e-01
  2.335713e+01    8.753090e-01
  2.346825e+01    8.610665e-01
  2.357938e+01    8.657851e-01
  2.369051e+01    8.393129e-01
  2.380164e+01    8.447651e-01
  2.391277e+01    8.039694e-01
  2.402390e+01    8.155282e-01
  2.413503e+01    7.891842e-01
  2.424616e+01    7.834743e-01
  2.435729e+01    8.135265e-01
  2.446842e+01    8.182778e-01
  2.457954e+01    8.128852e-01
  2.469067e+01    7.908150e-01
  2.480180e+01    8.121878e-01
  2.491293e+01    8.143348e-01
  2.502406e+01    8.134758e-01
  2.513519e+01    8.327416e-01
  2.524632e+01    8.495676e-01
  2.535745e+01    9.036040e-01
  2.546858e+01    9.550751e-01
  2.557971e+01    1.065494e+00
  2.569083e+01    1.316753e+00
  2.580196e+01    2.246381e+00
  2.591309e+01    5.609443e+00
  2.602422e+01    8.854979e+00
  2.613535e+01    3.524307e+00
  2.624648e+01    1.677853e+00
  2.635761e+01    1.180310e+00
  2.646874e+01    1.028769e+00
  2.657987e+01    9.812881e-01
  2.669100e+01    9.287916e-01
  2.680212e+01    9.242151e-01
  2.691325e+01    9.629691e-01
  2.702438e+01    1.036674e+00
  2.713551e+01    1.457229e+00
  2.724664e+01    2.533201e+00
  2.735777e+01    1.799987e+00
  2.746890e+01    1.076972e+00
  2.758003e+01    9.405825e-01
  2.769116e+01    8.619934e-01
  2.780229e+01    8.297240e-01
  2.791342e+01    8.066793e-01
  2.802454e+01    8.025094e-01
  2.813567e+01    8.256304e-01
  2.824680e+01    7.844306e-01
  2.835793e+01    8.058439e-01
  2.846906e+01    7.898651e-01
  2.858019e+01    7.756085e-01
  2.869132e+01    7.977893e-01
  2.880245e+01    7.677665e-01
  2.891358e+01    7.332499e-01
  2.902471e+01    7.605932e-01
  2.913583e+01    7.468734e-01
  2.924696e+01    7.454608e-01
  2.935809e+01    7.661356e-01
  2.946922e+01    7.551030e-01
  2.958035e+01    7.304704e-01
  2.969148e+01    7.398164e-01
  2.980261e+01    7.282709e-01
  2.991374e+01    7.456478e-01
  3.002487e+01    7.549408e-01
  3.013600e+01    7.194687e-01
  3.024712e+01    7.439404e-01
  3.035825e+01    7.263613e-01
  3.046938e+01    7.607030e-01
  3.058051e+01    7.155142e-01
  3.069164e+01    7.374560e-01
  3.080277e+01    7.430311e-01
  3.091390e+01    7.277026e-01
  3.102503e+01    7.391354e-01
  3.113616e+01    7.244338e-01
  3.124729e+01    7.274209e-01
  3.135841e+01    7.812566e-01
  3.146954e+01    7.537388e-01
  3.158067e+01    8.011526e-01
  3.169180e+01    8.886251e-01
  3.180293e+01    1.231309e+00
  3.191406e+01    2.269203e+00
  3.202519e+01    2.121817e+00
  3.213632e+01    1.095279e+00
  3.224745e+01    8.653092e-01
  3.235858e+01    7.759021e-01
  3.246970e+01    7.585418e-01
  3.254908e+01    7.547875e-01