Folder: myspot_2024_07/XRD/Activation ramp (part 39)

File: 2024-07-27_002_Ru-CGO-ex_Activtation_ramp_000002_data_000171.dat
# == pyFAI calibration ==
# Distance Sample to Detector: 0.4 m
# PONI: 9.750e-02, 1.135e-01 m
# Rotations: -0.000175 0.000000 -0.000000 rad
#
# == Fit2d calibration ==
# Distance Sample-beamCenter: 400.000 mm
# Center: x=1514.000, y=1300.000 pix
# Tilt: 0.010 deg  TiltPlanRot: 0.010 deg
#
# Detector Detector	 Spline= None	 PixelSize= 7.500e-05, 7.500e-05 m
#    Detector has a mask: False
#    Detector has a dark current: False
#    detector has a flat field: False
#
# Wavelength: 6.888e-11 m
# Mask applied: user provided
# Dark current applied: False
# Flat field applied: False
# Polarization factor: 0.99
# Normalization factor: 1.0
# --> /home/myspot/data/2024_07_Rosario/Ru-CGO-ex/2024-07-27_002_Ru-CGO-ex_Activtation_ramp_000002_data_000171.dat
#       q_nm^-1             I
  2.003187e-02    1.424646e-01
  1.311609e-01    7.662805e-02
  2.422899e-01    4.831280e-02
  3.534189e-01    2.572176e-02
  4.645479e-01    4.292975e-02
  5.756770e-01    4.371111e-02
  6.868060e-01    2.786189e-02
  7.979350e-01    1.615564e-01
  9.090640e-01    5.459608e-01
  1.020193e+00    1.215407e+00
  1.131322e+00    1.459162e+00
  1.242451e+00    2.164395e+00
  1.353580e+00    2.502889e+00
  1.464709e+00    2.858746e+00
  1.575838e+00    2.685138e+00
  1.686967e+00    2.816005e+00
  1.798096e+00    2.739306e+00
  1.909225e+00    2.716194e+00
  2.020354e+00    2.794758e+00
  2.131483e+00    2.769490e+00
  2.242612e+00    2.725744e+00
  2.353741e+00    2.693558e+00
  2.464870e+00    2.737437e+00
  2.575999e+00    2.837606e+00
  2.687128e+00    2.742144e+00
  2.798257e+00    2.877382e+00
  2.909386e+00    2.884059e+00
  3.020515e+00    2.869953e+00
  3.131644e+00    2.850036e+00
  3.242773e+00    2.961089e+00
  3.353902e+00    2.929564e+00
  3.465031e+00    2.918013e+00
  3.576160e+00    2.878232e+00
  3.687289e+00    2.965386e+00
  3.798418e+00    3.042915e+00
  3.909547e+00    3.087774e+00
  4.020676e+00    3.003461e+00
  4.131806e+00    3.011792e+00
  4.242935e+00    3.106121e+00
  4.354064e+00    3.078917e+00
  4.465193e+00    2.976240e+00
  4.576322e+00    3.130916e+00
  4.687451e+00    3.106363e+00
  4.798580e+00    3.146437e+00
  4.909709e+00    3.086569e+00
  5.020838e+00    3.080962e+00
  5.131967e+00    3.135866e+00
  5.243096e+00    3.180703e+00
  5.354225e+00    3.158973e+00
  5.465354e+00    3.108396e+00
  5.576483e+00    3.075546e+00
  5.687612e+00    3.091807e+00
  5.798741e+00    3.054965e+00
  5.909870e+00    3.006056e+00
  6.020999e+00    3.005788e+00
  6.132128e+00    3.125872e+00
  6.243257e+00    3.095082e+00
  6.354386e+00    3.067474e+00
  6.465515e+00    3.096213e+00
  6.576644e+00    3.062303e+00
  6.687773e+00    3.031608e+00
  6.798902e+00    2.975147e+00
  6.910031e+00    3.052674e+00
  7.021160e+00    3.034774e+00
  7.132289e+00    3.037937e+00
  7.243418e+00    3.002833e+00
  7.354547e+00    2.980765e+00
  7.465676e+00    3.007059e+00
  7.576805e+00    2.948878e+00
  7.687934e+00    2.957243e+00
  7.799063e+00    2.906021e+00
  7.910192e+00    2.900630e+00
  8.021321e+00    2.939652e+00
  8.132450e+00    2.967567e+00
  8.243579e+00    3.047355e+00
  8.354708e+00    2.900343e+00
  8.465837e+00    2.894717e+00
  8.576966e+00    2.933469e+00
  8.688095e+00    2.863781e+00
  8.799224e+00    2.877014e+00
  8.910353e+00    2.887456e+00
  9.021482e+00    2.825001e+00
  9.132611e+00    2.785553e+00
  9.243740e+00    2.779974e+00
  9.354869e+00    2.778223e+00
  9.465998e+00    2.796281e+00
  9.577127e+00    2.742136e+00
  9.688256e+00    2.779934e+00
  9.799385e+00    2.690418e+00
  9.910514e+00    2.685979e+00
  1.002164e+01    2.645753e+00
  1.013277e+01    2.616002e+00
  1.024390e+01    2.665719e+00
  1.035503e+01    2.660723e+00
  1.046616e+01    2.614321e+00
  1.057729e+01    2.573816e+00
  1.068842e+01    2.609049e+00
  1.079955e+01    2.583946e+00
  1.091068e+01    2.539246e+00
  1.102180e+01    2.527312e+00
  1.113293e+01    2.502176e+00
  1.124406e+01    2.479213e+00
  1.135519e+01    2.431215e+00
  1.146632e+01    2.431652e+00
  1.157745e+01    2.413441e+00
  1.168858e+01    2.432000e+00
  1.179971e+01    2.364686e+00
  1.191084e+01    2.331708e+00
  1.202197e+01    2.330930e+00
  1.213309e+01    2.316551e+00
  1.224422e+01    2.335326e+00
  1.235535e+01    2.329313e+00
  1.246648e+01    2.294942e+00
  1.257761e+01    2.367732e+00
  1.268874e+01    2.443950e+00
  1.279987e+01    2.638016e+00
  1.291100e+01    3.252603e+00
  1.302213e+01    6.184034e+00
  1.313326e+01    1.414919e+01
  1.324438e+01    1.065193e+01
  1.335551e+01    4.073289e+00
  1.346664e+01    2.798820e+00
  1.357777e+01    2.402861e+00
  1.368890e+01    2.257464e+00
  1.380003e+01    2.196847e+00
  1.391116e+01    2.063110e+00
  1.402229e+01    2.056415e+00
  1.413342e+01    2.015035e+00
  1.424455e+01    1.988213e+00
  1.435568e+01    1.950139e+00
  1.446680e+01    1.943137e+00
  1.457793e+01    1.918726e+00
  1.468906e+01    1.938092e+00
  1.480019e+01    1.911862e+00
  1.491132e+01    2.013612e+00
  1.502245e+01    2.272812e+00
  1.513358e+01    3.501673e+00
  1.524471e+01    5.424922e+00
  1.535584e+01    3.535931e+00
  1.546697e+01    2.127576e+00
  1.557809e+01    1.856898e+00
  1.568922e+01    1.754681e+00
  1.580035e+01    1.692588e+00
  1.591148e+01    1.662614e+00
  1.602261e+01    1.635686e+00
  1.613374e+01    1.629697e+00
  1.624487e+01    1.587376e+00
  1.635600e+01    1.551054e+00
  1.646713e+01    1.526347e+00
  1.657826e+01    1.521528e+00
  1.668938e+01    1.489318e+00
  1.680051e+01    1.479111e+00
  1.691164e+01    1.468082e+00
  1.702277e+01    1.458370e+00
  1.713390e+01    1.440236e+00
  1.724503e+01    1.441654e+00
  1.735616e+01    1.390011e+00
  1.746729e+01    1.393447e+00
  1.757842e+01    1.415266e+00
  1.768955e+01    1.353817e+00
  1.780067e+01    1.365034e+00
  1.791180e+01    1.332108e+00
  1.802293e+01    1.314751e+00
  1.813406e+01    1.292270e+00
  1.824519e+01    1.279282e+00
  1.835632e+01    1.296217e+00
  1.846745e+01    1.266161e+00
  1.857858e+01    1.265909e+00
  1.868971e+01    1.223087e+00
  1.880084e+01    1.227483e+00
  1.891196e+01    1.192469e+00
  1.902309e+01    1.196020e+00
  1.913422e+01    1.188359e+00
  1.924535e+01    1.208970e+00
  1.935648e+01    1.152547e+00
  1.946761e+01    1.177963e+00
  1.957874e+01    1.156434e+00
  1.968987e+01    1.137864e+00
  1.980100e+01    1.123048e+00
  1.991213e+01    1.118433e+00
  2.002325e+01    1.142276e+00
  2.013438e+01    1.111547e+00
  2.024551e+01    1.104603e+00
  2.035664e+01    1.123180e+00
  2.046777e+01    1.081888e+00
  2.057890e+01    1.081740e+00
  2.069003e+01    1.081508e+00
  2.080116e+01    1.083270e+00
  2.091229e+01    1.091618e+00
  2.102342e+01    1.070733e+00
  2.113455e+01    1.085283e+00
  2.124567e+01    1.098799e+00
  2.135680e+01    1.162012e+00
  2.146793e+01    1.244690e+00
  2.157906e+01    1.467489e+00
  2.169019e+01    2.354530e+00
  2.180132e+01    5.596903e+00
  2.191245e+01    8.671802e+00
  2.202358e+01    3.430512e+00
  2.213471e+01    1.698575e+00
  2.224584e+01    1.274897e+00
  2.235696e+01    1.115500e+00
  2.246809e+01    1.028866e+00
  2.257922e+01    9.955480e-01
  2.269035e+01    9.499085e-01
  2.280148e+01    9.420691e-01
  2.291261e+01    8.933141e-01
  2.302374e+01    8.920929e-01
  2.313487e+01    8.659662e-01
  2.324600e+01    8.703697e-01
  2.335713e+01    8.590884e-01
  2.346825e+01    8.389072e-01
  2.357938e+01    8.325570e-01
  2.369051e+01    8.291985e-01
  2.380164e+01    8.305411e-01
  2.391277e+01    7.759373e-01
  2.402390e+01    7.811971e-01
  2.413503e+01    8.006473e-01
  2.424616e+01    7.892736e-01
  2.435729e+01    7.960365e-01
  2.446842e+01    7.972040e-01
  2.457954e+01    7.902977e-01
  2.469067e+01    7.883270e-01
  2.480180e+01    7.757914e-01
  2.491293e+01    8.002164e-01
  2.502406e+01    7.840915e-01
  2.513519e+01    8.344278e-01
  2.524632e+01    8.520463e-01
  2.535745e+01    8.822080e-01
  2.546858e+01    9.473087e-01
  2.557971e+01    1.078082e+00
  2.569083e+01    1.420186e+00
  2.580196e+01    2.708774e+00
  2.591309e+01    6.350543e+00
  2.602422e+01    5.307309e+00
  2.613535e+01    2.054034e+00
  2.624648e+01    1.223308e+00
  2.635761e+01    1.000551e+00
  2.646874e+01    9.466937e-01
  2.657987e+01    9.114292e-01
  2.669100e+01    8.751779e-01
  2.680212e+01    8.924690e-01
  2.691325e+01    8.973610e-01
  2.702438e+01    1.080849e+00
  2.713551e+01    1.650740e+00
  2.724664e+01    2.060011e+00
  2.735777e+01    1.206398e+00
  2.746890e+01    9.233001e-01
  2.758003e+01    8.452948e-01
  2.769116e+01    8.103622e-01
  2.780229e+01    8.194249e-01
  2.791342e+01    7.641799e-01
  2.802454e+01    7.908120e-01
  2.813567e+01    7.763818e-01
  2.824680e+01    7.713190e-01
  2.835793e+01    7.750801e-01
  2.846906e+01    7.416216e-01
  2.858019e+01    7.599738e-01
  2.869132e+01    7.243988e-01
  2.880245e+01    7.399268e-01
  2.891358e+01    7.141592e-01
  2.902471e+01    7.373646e-01
  2.913583e+01    7.350175e-01
  2.924696e+01    7.682042e-01
  2.935809e+01    7.299570e-01
  2.946922e+01    7.007478e-01
  2.958035e+01    7.087395e-01
  2.969148e+01    7.323007e-01
  2.980261e+01    7.051983e-01
  2.991374e+01    7.343135e-01
  3.002487e+01    7.449250e-01
  3.013600e+01    7.111839e-01
  3.024712e+01    7.180991e-01
  3.035825e+01    7.116702e-01
  3.046938e+01    6.964467e-01
  3.058051e+01    7.019008e-01
  3.069164e+01    7.194293e-01
  3.080277e+01    7.158319e-01
  3.091390e+01    7.197810e-01
  3.102503e+01    7.098084e-01
  3.113616e+01    7.071751e-01
  3.124729e+01    7.134143e-01
  3.135841e+01    7.425331e-01
  3.146954e+01    7.563263e-01
  3.158067e+01    8.132281e-01
  3.169180e+01    9.554439e-01
  3.180293e+01    1.411020e+00
  3.191406e+01    2.127474e+00
  3.202519e+01    1.274953e+00
  3.213632e+01    8.614525e-01
  3.224745e+01    7.672712e-01
  3.235858e+01    7.359530e-01
  3.246970e+01    7.218646e-01
  3.254908e+01    7.105605e-01

File: 2024-07-27_002_Ru-CGO-ex_Activtation_ramp_000002_data_000172.dat
# == pyFAI calibration ==
# Distance Sample to Detector: 0.4 m
# PONI: 9.750e-02, 1.135e-01 m
# Rotations: -0.000175 0.000000 -0.000000 rad
#
# == Fit2d calibration ==
# Distance Sample-beamCenter: 400.000 mm
# Center: x=1514.000, y=1300.000 pix
# Tilt: 0.010 deg  TiltPlanRot: 0.010 deg
#
# Detector Detector	 Spline= None	 PixelSize= 7.500e-05, 7.500e-05 m
#    Detector has a mask: False
#    Detector has a dark current: False
#    detector has a flat field: False
#
# Wavelength: 6.888e-11 m
# Mask applied: user provided
# Dark current applied: False
# Flat field applied: False
# Polarization factor: 0.99
# Normalization factor: 1.0
# --> /home/myspot/data/2024_07_Rosario/Ru-CGO-ex/2024-07-27_002_Ru-CGO-ex_Activtation_ramp_000002_data_000172.dat
#       q_nm^-1             I
  2.003187e-02    7.712624e-02
  1.311609e-01    6.996091e-02
  2.422899e-01    6.068011e-02
  3.534189e-01    2.186711e-02
  4.645479e-01    1.855777e-02
  5.756770e-01    3.149302e-02
  6.868060e-01    3.450832e-02
  7.979350e-01    1.388003e-01
  9.090640e-01    5.544223e-01
  1.020193e+00    1.103045e+00
  1.131322e+00    1.436331e+00
  1.242451e+00    2.135617e+00
  1.353580e+00    2.407718e+00
  1.464709e+00    2.786621e+00
  1.575838e+00    2.864984e+00
  1.686967e+00    2.877757e+00
  1.798096e+00    2.745195e+00
  1.909225e+00    2.570198e+00
  2.020354e+00    2.678956e+00
  2.131483e+00    2.694798e+00
  2.242612e+00    2.740001e+00
  2.353741e+00    2.876887e+00
  2.464870e+00    2.736657e+00
  2.575999e+00    2.853397e+00
  2.687128e+00    2.704126e+00
  2.798257e+00    2.892839e+00
  2.909386e+00    2.872203e+00
  3.020515e+00    2.835665e+00
  3.131644e+00    2.873454e+00
  3.242773e+00    2.895737e+00
  3.353902e+00    2.928521e+00
  3.465031e+00    2.970651e+00
  3.576160e+00    2.951292e+00
  3.687289e+00    2.963104e+00
  3.798418e+00    2.891971e+00
  3.909547e+00    2.970491e+00
  4.020676e+00    3.067751e+00
  4.131806e+00    3.064337e+00
  4.242935e+00    3.021797e+00
  4.354064e+00    3.073834e+00
  4.465193e+00    3.072898e+00
  4.576322e+00    3.038361e+00
  4.687451e+00    3.095500e+00
  4.798580e+00    3.105077e+00
  4.909709e+00    3.092388e+00
  5.020838e+00    3.076755e+00
  5.131967e+00    3.089290e+00
  5.243096e+00    3.113258e+00
  5.354225e+00    3.171381e+00
  5.465354e+00    3.097945e+00
  5.576483e+00    3.038171e+00
  5.687612e+00    2.986263e+00
  5.798741e+00    3.003319e+00
  5.909870e+00    3.081568e+00
  6.020999e+00    2.990071e+00
  6.132128e+00    3.118794e+00
  6.243257e+00    3.038322e+00
  6.354386e+00    3.066954e+00
  6.465515e+00    3.010407e+00
  6.576644e+00    2.996475e+00
  6.687773e+00    3.057486e+00
  6.798902e+00    3.025610e+00
  6.910031e+00    2.961499e+00
  7.021160e+00    3.032072e+00
  7.132289e+00    3.066546e+00
  7.243418e+00    3.045976e+00
  7.354547e+00    2.962579e+00
  7.465676e+00    3.045454e+00
  7.576805e+00    2.930256e+00
  7.687934e+00    2.999463e+00
  7.799063e+00    2.955300e+00
  7.910192e+00    2.970335e+00
  8.021321e+00    2.893080e+00
  8.132450e+00    2.962372e+00
  8.243579e+00    2.970438e+00
  8.354708e+00    2.923541e+00
  8.465837e+00    2.910109e+00
  8.576966e+00    2.885413e+00
  8.688095e+00    2.882494e+00
  8.799224e+00    2.891024e+00
  8.910353e+00    2.853099e+00
  9.021482e+00    2.802188e+00
  9.132611e+00    2.822112e+00
  9.243740e+00    2.759130e+00
  9.354869e+00    2.750728e+00
  9.465998e+00    2.762457e+00
  9.577127e+00    2.766773e+00
  9.688256e+00    2.794940e+00
  9.799385e+00    2.692491e+00
  9.910514e+00    2.769988e+00
  1.002164e+01    2.633660e+00
  1.013277e+01    2.693636e+00
  1.024390e+01    2.670336e+00
  1.035503e+01    2.597984e+00
  1.046616e+01    2.660878e+00
  1.057729e+01    2.614146e+00
  1.068842e+01    2.593806e+00
  1.079955e+01    2.577346e+00
  1.091068e+01    2.544910e+00
  1.102180e+01    2.482505e+00
  1.113293e+01    2.504382e+00
  1.124406e+01    2.433530e+00
  1.135519e+01    2.435822e+00
  1.146632e+01    2.428352e+00
  1.157745e+01    2.354356e+00
  1.168858e+01    2.386096e+00
  1.179971e+01    2.402424e+00
  1.191084e+01    2.315525e+00
  1.202197e+01    2.339023e+00
  1.213309e+01    2.351944e+00
  1.224422e+01    2.295178e+00
  1.235535e+01    2.359813e+00
  1.246648e+01    2.352377e+00
  1.257761e+01    2.380987e+00
  1.268874e+01    2.443988e+00
  1.279987e+01    2.660609e+00
  1.291100e+01    3.311575e+00
  1.302213e+01    6.119969e+00
  1.313326e+01    1.407282e+01
  1.324438e+01    1.064914e+01
  1.335551e+01    4.109857e+00
  1.346664e+01    2.809533e+00
  1.357777e+01    2.385297e+00
  1.368890e+01    2.249490e+00
  1.380003e+01    2.160083e+00
  1.391116e+01    2.091235e+00
  1.402229e+01    2.032670e+00
  1.413342e+01    1.986168e+00
  1.424455e+01    1.983436e+00
  1.435568e+01    1.959825e+00
  1.446680e+01    1.918343e+00
  1.457793e+01    1.896129e+00
  1.468906e+01    1.932206e+00
  1.480019e+01    1.901064e+00
  1.491132e+01    1.972970e+00
  1.502245e+01    2.236721e+00
  1.513358e+01    3.471033e+00
  1.524471e+01    5.448663e+00
  1.535584e+01    3.552054e+00
  1.546697e+01    2.125650e+00
  1.557809e+01    1.880147e+00
  1.568922e+01    1.742945e+00
  1.580035e+01    1.702612e+00
  1.591148e+01    1.622831e+00
  1.602261e+01    1.612520e+00
  1.613374e+01    1.609564e+00
  1.624487e+01    1.577561e+00
  1.635600e+01    1.542870e+00
  1.646713e+01    1.514513e+00
  1.657826e+01    1.492928e+00
  1.668938e+01    1.473271e+00
  1.680051e+01    1.440128e+00
  1.691164e+01    1.475215e+00
  1.702277e+01    1.417718e+00
  1.713390e+01    1.414412e+00
  1.724503e+01    1.414641e+00
  1.735616e+01    1.397051e+00
  1.746729e+01    1.393921e+00
  1.757842e+01    1.356394e+00
  1.768955e+01    1.340355e+00
  1.780067e+01    1.333696e+00
  1.791180e+01    1.297115e+00
  1.802293e+01    1.309274e+00
  1.813406e+01    1.269578e+00
  1.824519e+01    1.282357e+00
  1.835632e+01    1.278262e+00
  1.846745e+01    1.267797e+00
  1.857858e+01    1.240246e+00
  1.868971e+01    1.218200e+00
  1.880084e+01    1.206582e+00
  1.891196e+01    1.245826e+00
  1.902309e+01    1.216278e+00
  1.913422e+01    1.194555e+00
  1.924535e+01    1.177555e+00
  1.935648e+01    1.187449e+00
  1.946761e+01    1.162841e+00
  1.957874e+01    1.169150e+00
  1.968987e+01    1.162655e+00
  1.980100e+01    1.149646e+00
  1.991213e+01    1.103930e+00
  2.002325e+01    1.159919e+00
  2.013438e+01    1.118986e+00
  2.024551e+01    1.090793e+00
  2.035664e+01    1.085263e+00
  2.046777e+01    1.081601e+00
  2.057890e+01    1.099382e+00
  2.069003e+01    1.079991e+00
  2.080116e+01    1.088413e+00
  2.091229e+01    1.071940e+00
  2.102342e+01    1.084282e+00
  2.113455e+01    1.071079e+00
  2.124567e+01    1.101553e+00
  2.135680e+01    1.144209e+00
  2.146793e+01    1.214067e+00
  2.157906e+01    1.496179e+00
  2.169019e+01    2.362855e+00
  2.180132e+01    5.496593e+00
  2.191245e+01    8.725344e+00
  2.202358e+01    3.478399e+00
  2.213471e+01    1.728392e+00
  2.224584e+01    1.272800e+00
  2.235696e+01    1.107687e+00
  2.246809e+01    1.014925e+00
  2.257922e+01    9.739152e-01
  2.269035e+01    9.253887e-01
  2.280148e+01    9.235207e-01
  2.291261e+01    9.216291e-01
  2.302374e+01    8.940073e-01
  2.313487e+01    8.863485e-01
  2.324600e+01    8.741087e-01
  2.335713e+01    8.636653e-01
  2.346825e+01    8.218152e-01
  2.357938e+01    8.435795e-01
  2.369051e+01    8.117769e-01
  2.380164e+01    8.144650e-01
  2.391277e+01    8.177996e-01
  2.402390e+01    7.869102e-01
  2.413503e+01    7.818283e-01
  2.424616e+01    7.561961e-01
  2.435729e+01    7.870112e-01
  2.446842e+01    7.885126e-01
  2.457954e+01    8.024986e-01
  2.469067e+01    7.914758e-01
  2.480180e+01    7.987556e-01
  2.491293e+01    7.949774e-01
  2.502406e+01    8.113613e-01
  2.513519e+01    8.026264e-01
  2.524632e+01    8.252414e-01
  2.535745e+01    8.962291e-01
  2.546858e+01    9.316042e-01
  2.557971e+01    1.040789e+00
  2.569083e+01    1.393168e+00
  2.580196e+01    2.640610e+00
  2.591309e+01    6.206480e+00
  2.602422e+01    5.399172e+00
  2.613535e+01    2.072850e+00
  2.624648e+01    1.263681e+00
  2.635761e+01    1.040896e+00
  2.646874e+01    9.205861e-01
  2.657987e+01    8.845760e-01
  2.669100e+01    8.696415e-01
  2.680212e+01    9.098582e-01
  2.691325e+01    9.015225e-01
  2.702438e+01    1.061886e+00
  2.713551e+01    1.615637e+00
  2.724664e+01    2.091942e+00
  2.735777e+01    1.226829e+00
  2.746890e+01    9.520081e-01
  2.758003e+01    8.322211e-01
  2.769116e+01    8.293085e-01
  2.780229e+01    8.131194e-01
  2.791342e+01    7.895768e-01
  2.802454e+01    7.703489e-01
  2.813567e+01    7.735421e-01
  2.824680e+01    7.820113e-01
  2.835793e+01    7.600081e-01
  2.846906e+01    7.472370e-01
  2.858019e+01    7.408563e-01
  2.869132e+01    7.346753e-01
  2.880245e+01    7.502792e-01
  2.891358e+01    7.323013e-01
  2.902471e+01    7.155644e-01
  2.913583e+01    7.371663e-01
  2.924696e+01    7.219732e-01
  2.935809e+01    7.009498e-01
  2.946922e+01    7.195013e-01
  2.958035e+01    7.005362e-01
  2.969148e+01    7.304585e-01
  2.980261e+01    7.087945e-01
  2.991374e+01    7.252564e-01
  3.002487e+01    7.081831e-01
  3.013600e+01    7.042443e-01
  3.024712e+01    7.024077e-01
  3.035825e+01    7.206807e-01
  3.046938e+01    7.206975e-01
  3.058051e+01    6.931427e-01
  3.069164e+01    7.079593e-01
  3.080277e+01    7.263868e-01
  3.091390e+01    7.071998e-01
  3.102503e+01    7.047595e-01
  3.113616e+01    7.215481e-01
  3.124729e+01    7.188397e-01
  3.135841e+01    7.449659e-01
  3.146954e+01    7.332901e-01
  3.158067e+01    7.992114e-01
  3.169180e+01    9.226046e-01
  3.180293e+01    1.375875e+00
  3.191406e+01    2.104029e+00
  3.202519e+01    1.290300e+00
  3.213632e+01    8.773479e-01
  3.224745e+01    7.757053e-01
  3.235858e+01    7.340755e-01
  3.246970e+01    7.014725e-01
  3.254908e+01    7.504595e-01