Folder: myspot_2024_07/XRD/Activation ramp (part 42)

File: 2024-07-27_002_Ru-CGO-ex_Activtation_ramp_000002_data_000188.dat
# == pyFAI calibration ==
# Distance Sample to Detector: 0.4 m
# PONI: 9.750e-02, 1.135e-01 m
# Rotations: -0.000175 0.000000 -0.000000 rad
#
# == Fit2d calibration ==
# Distance Sample-beamCenter: 400.000 mm
# Center: x=1514.000, y=1300.000 pix
# Tilt: 0.010 deg  TiltPlanRot: 0.010 deg
#
# Detector Detector	 Spline= None	 PixelSize= 7.500e-05, 7.500e-05 m
#    Detector has a mask: False
#    Detector has a dark current: False
#    detector has a flat field: False
#
# Wavelength: 6.888e-11 m
# Mask applied: user provided
# Dark current applied: False
# Flat field applied: False
# Polarization factor: 0.99
# Normalization factor: 1.0
# --> /home/myspot/data/2024_07_Rosario/Ru-CGO-ex/2024-07-27_002_Ru-CGO-ex_Activtation_ramp_000002_data_000188.dat
#       q_nm^-1             I
  2.003187e-02    0.000000e+00
  1.311609e-01    9.306603e-02
  2.422899e-01    2.203599e-02
  3.534189e-01    7.808016e-02
  4.645479e-01    3.178027e-02
  5.756770e-01    2.493647e-02
  6.868060e-01    4.459606e-02
  7.979350e-01    1.224468e-01
  9.090640e-01    5.636668e-01
  1.020193e+00    9.983571e-01
  1.131322e+00    1.438675e+00
  1.242451e+00    2.178618e+00
  1.353580e+00    2.501890e+00
  1.464709e+00    2.752711e+00
  1.575838e+00    2.872407e+00
  1.686967e+00    2.634161e+00
  1.798096e+00    2.695764e+00
  1.909225e+00    2.786474e+00
  2.020354e+00    2.643479e+00
  2.131483e+00    2.660361e+00
  2.242612e+00    2.585892e+00
  2.353741e+00    2.817184e+00
  2.464870e+00    2.748669e+00
  2.575999e+00    2.825418e+00
  2.687128e+00    2.783644e+00
  2.798257e+00    2.824583e+00
  2.909386e+00    2.716669e+00
  3.020515e+00    2.923145e+00
  3.131644e+00    2.801743e+00
  3.242773e+00    3.009803e+00
  3.353902e+00    2.967185e+00
  3.465031e+00    2.936783e+00
  3.576160e+00    3.046621e+00
  3.687289e+00    3.037134e+00
  3.798418e+00    3.080163e+00
  3.909547e+00    2.950629e+00
  4.020676e+00    3.003308e+00
  4.131806e+00    3.002570e+00
  4.242935e+00    3.098657e+00
  4.354064e+00    3.177162e+00
  4.465193e+00    3.067052e+00
  4.576322e+00    3.054046e+00
  4.687451e+00    3.064805e+00
  4.798580e+00    3.183288e+00
  4.909709e+00    3.210871e+00
  5.020838e+00    3.156712e+00
  5.131967e+00    3.105333e+00
  5.243096e+00    3.154735e+00
  5.354225e+00    3.047017e+00
  5.465354e+00    3.088048e+00
  5.576483e+00    3.134720e+00
  5.687612e+00    3.038988e+00
  5.798741e+00    3.103297e+00
  5.909870e+00    3.069759e+00
  6.020999e+00    3.016845e+00
  6.132128e+00    3.090845e+00
  6.243257e+00    3.021671e+00
  6.354386e+00    3.088379e+00
  6.465515e+00    3.071053e+00
  6.576644e+00    3.024289e+00
  6.687773e+00    3.033188e+00
  6.798902e+00    3.012984e+00
  6.910031e+00    2.987059e+00
  7.021160e+00    2.998127e+00
  7.132289e+00    3.067325e+00
  7.243418e+00    3.067301e+00
  7.354547e+00    2.992889e+00
  7.465676e+00    2.960669e+00
  7.576805e+00    3.003987e+00
  7.687934e+00    2.936190e+00
  7.799063e+00    2.924908e+00
  7.910192e+00    2.948541e+00
  8.021321e+00    2.935239e+00
  8.132450e+00    2.995444e+00
  8.243579e+00    2.953223e+00
  8.354708e+00    2.939304e+00
  8.465837e+00    2.915116e+00
  8.576966e+00    2.823904e+00
  8.688095e+00    2.904579e+00
  8.799224e+00    2.834627e+00
  8.910353e+00    2.838620e+00
  9.021482e+00    2.822570e+00
  9.132611e+00    2.833842e+00
  9.243740e+00    2.810079e+00
  9.354869e+00    2.797134e+00
  9.465998e+00    2.751670e+00
  9.577127e+00    2.769963e+00
  9.688256e+00    2.739146e+00
  9.799385e+00    2.714081e+00
  9.910514e+00    2.690664e+00
  1.002164e+01    2.701848e+00
  1.013277e+01    2.649631e+00
  1.024390e+01    2.629110e+00
  1.035503e+01    2.645195e+00
  1.046616e+01    2.600948e+00
  1.057729e+01    2.606269e+00
  1.068842e+01    2.585840e+00
  1.079955e+01    2.550975e+00
  1.091068e+01    2.489039e+00
  1.102180e+01    2.485543e+00
  1.113293e+01    2.494893e+00
  1.124406e+01    2.446136e+00
  1.135519e+01    2.438756e+00
  1.146632e+01    2.392046e+00
  1.157745e+01    2.364569e+00
  1.168858e+01    2.389584e+00
  1.179971e+01    2.372144e+00
  1.191084e+01    2.327060e+00
  1.202197e+01    2.378474e+00
  1.213309e+01    2.373296e+00
  1.224422e+01    2.338493e+00
  1.235535e+01    2.304711e+00
  1.246648e+01    2.337101e+00
  1.257761e+01    2.391378e+00
  1.268874e+01    2.475635e+00
  1.279987e+01    2.621323e+00
  1.291100e+01    3.298653e+00
  1.302213e+01    6.145637e+00
  1.313326e+01    1.391259e+01
  1.324438e+01    1.039293e+01
  1.335551e+01    4.078230e+00
  1.346664e+01    2.797386e+00
  1.357777e+01    2.421769e+00
  1.368890e+01    2.250850e+00
  1.380003e+01    2.127818e+00
  1.391116e+01    2.062768e+00
  1.402229e+01    2.048193e+00
  1.413342e+01    2.011972e+00
  1.424455e+01    2.009230e+00
  1.435568e+01    1.950548e+00
  1.446680e+01    1.940636e+00
  1.457793e+01    1.869949e+00
  1.468906e+01    1.898996e+00
  1.480019e+01    1.976436e+00
  1.491132e+01    1.994834e+00
  1.502245e+01    2.195550e+00
  1.513358e+01    3.366160e+00
  1.524471e+01    5.423044e+00
  1.535584e+01    3.499509e+00
  1.546697e+01    2.170890e+00
  1.557809e+01    1.839411e+00
  1.568922e+01    1.767246e+00
  1.580035e+01    1.683264e+00
  1.591148e+01    1.668361e+00
  1.602261e+01    1.582670e+00
  1.613374e+01    1.575406e+00
  1.624487e+01    1.565360e+00
  1.635600e+01    1.564309e+00
  1.646713e+01    1.519198e+00
  1.657826e+01    1.526124e+00
  1.668938e+01    1.463944e+00
  1.680051e+01    1.488820e+00
  1.691164e+01    1.424014e+00
  1.702277e+01    1.393602e+00
  1.713390e+01    1.445571e+00
  1.724503e+01    1.377153e+00
  1.735616e+01    1.394200e+00
  1.746729e+01    1.379588e+00
  1.757842e+01    1.387481e+00
  1.768955e+01    1.351618e+00
  1.780067e+01    1.317950e+00
  1.791180e+01    1.326584e+00
  1.802293e+01    1.301336e+00
  1.813406e+01    1.338659e+00
  1.824519e+01    1.290117e+00
  1.835632e+01    1.253096e+00
  1.846745e+01    1.302469e+00
  1.857858e+01    1.233996e+00
  1.868971e+01    1.203684e+00
  1.880084e+01    1.228866e+00
  1.891196e+01    1.190248e+00
  1.902309e+01    1.218911e+00
  1.913422e+01    1.181536e+00
  1.924535e+01    1.178992e+00
  1.935648e+01    1.162743e+00
  1.946761e+01    1.152785e+00
  1.957874e+01    1.140017e+00
  1.968987e+01    1.164738e+00
  1.980100e+01    1.115294e+00
  1.991213e+01    1.131098e+00
  2.002325e+01    1.111601e+00
  2.013438e+01    1.106410e+00
  2.024551e+01    1.086438e+00
  2.035664e+01    1.099900e+00
  2.046777e+01    1.081427e+00
  2.057890e+01    1.089797e+00
  2.069003e+01    1.088308e+00
  2.080116e+01    1.086185e+00
  2.091229e+01    1.093274e+00
  2.102342e+01    1.064885e+00
  2.113455e+01    1.062410e+00
  2.124567e+01    1.086670e+00
  2.135680e+01    1.109373e+00
  2.146793e+01    1.217905e+00
  2.157906e+01    1.482288e+00
  2.169019e+01    2.289249e+00
  2.180132e+01    5.524151e+00
  2.191245e+01    8.582878e+00
  2.202358e+01    3.432164e+00
  2.213471e+01    1.701559e+00
  2.224584e+01    1.275457e+00
  2.235696e+01    1.085398e+00
  2.246809e+01    1.038207e+00
  2.257922e+01    1.000721e+00
  2.269035e+01    9.595824e-01
  2.280148e+01    9.344751e-01
  2.291261e+01    8.775624e-01
  2.302374e+01    8.831216e-01
  2.313487e+01    8.843888e-01
  2.324600e+01    8.669342e-01
  2.335713e+01    8.677069e-01
  2.346825e+01    8.280236e-01
  2.357938e+01    8.454875e-01
  2.369051e+01    8.100592e-01
  2.380164e+01    8.043307e-01
  2.391277e+01    7.888171e-01
  2.402390e+01    7.774248e-01
  2.413503e+01    7.742018e-01
  2.424616e+01    7.828861e-01
  2.435729e+01    7.991600e-01
  2.446842e+01    7.854116e-01
  2.457954e+01    7.966909e-01
  2.469067e+01    7.844907e-01
  2.480180e+01    7.750545e-01
  2.491293e+01    8.021052e-01
  2.502406e+01    7.860552e-01
  2.513519e+01    8.082271e-01
  2.524632e+01    8.468053e-01
  2.535745e+01    8.733840e-01
  2.546858e+01    9.194535e-01
  2.557971e+01    1.070769e+00
  2.569083e+01    1.381860e+00
  2.580196e+01    2.638158e+00
  2.591309e+01    6.145829e+00
  2.602422e+01    5.250084e+00
  2.613535e+01    2.018792e+00
  2.624648e+01    1.226780e+00
  2.635761e+01    9.802334e-01
  2.646874e+01    9.440278e-01
  2.657987e+01    8.716509e-01
  2.669100e+01    8.719039e-01
  2.680212e+01    8.718825e-01
  2.691325e+01    9.145175e-01
  2.702438e+01    1.046017e+00
  2.713551e+01    1.632548e+00
  2.724664e+01    2.075852e+00
  2.735777e+01    1.185581e+00
  2.746890e+01    9.248083e-01
  2.758003e+01    8.283060e-01
  2.769116e+01    7.926040e-01
  2.780229e+01    7.911142e-01
  2.791342e+01    7.853741e-01
  2.802454e+01    7.615627e-01
  2.813567e+01    7.704760e-01
  2.824680e+01    7.768493e-01
  2.835793e+01    7.650436e-01
  2.846906e+01    7.512012e-01
  2.858019e+01    7.560441e-01
  2.869132e+01    7.352512e-01
  2.880245e+01    7.347388e-01
  2.891358e+01    7.341464e-01
  2.902471e+01    7.259405e-01
  2.913583e+01    7.347310e-01
  2.924696e+01    7.228953e-01
  2.935809e+01    7.138237e-01
  2.946922e+01    7.199664e-01
  2.958035e+01    7.354277e-01
  2.969148e+01    6.967785e-01
  2.980261e+01    7.094496e-01
  2.991374e+01    7.060629e-01
  3.002487e+01    7.193298e-01
  3.013600e+01    7.320925e-01
  3.024712e+01    7.072193e-01
  3.035825e+01    6.977356e-01
  3.046938e+01    6.841826e-01
  3.058051e+01    6.770351e-01
  3.069164e+01    6.913056e-01
  3.080277e+01    7.173353e-01
  3.091390e+01    7.119824e-01
  3.102503e+01    7.193881e-01
  3.113616e+01    7.150779e-01
  3.124729e+01    7.243568e-01
  3.135841e+01    7.255877e-01
  3.146954e+01    7.449185e-01
  3.158067e+01    8.110408e-01
  3.169180e+01    9.072085e-01
  3.180293e+01    1.370894e+00
  3.191406e+01    2.124913e+00
  3.202519e+01    1.262037e+00
  3.213632e+01    8.700126e-01
  3.224745e+01    7.666315e-01
  3.235858e+01    7.394831e-01
  3.246970e+01    6.998762e-01
  3.254908e+01    7.130858e-01

File: cleaned_data.txt
q_nm^-1             I
2.003187e-02    0.000000e+00
1.311609e-01    3.958973e-02
2.422899e-01    7.643035e-02
3.534189e-01    2.063214e-02
4.645479e-01    4.742662e-02
5.756770e-01    5.806728e-02
6.868060e-01    2.188308e-02
7.979350e-01    1.460565e-01
9.090640e-01    5.455952e-01
1.020193e+00    1.086100e+00
1.131322e+00    1.394027e+00
1.242451e+00    2.072169e+00
1.353580e+00    2.523986e+00
1.464709e+00    2.684656e+00
1.575838e+00    2.759542e+00
1.686967e+00    2.838326e+00
1.798096e+00    2.752375e+00
1.909225e+00    2.715297e+00
2.020354e+00    2.793596e+00
2.131483e+00    2.637948e+00
2.242612e+00    2.698726e+00
2.353741e+00    2.705975e+00
2.464870e+00    2.871616e+00
2.575999e+00    2.903978e+00
2.687128e+00    2.865590e+00
2.798257e+00    2.909472e+00
2.909386e+00    2.824304e+00
3.020515e+00    2.962587e+00
3.131644e+00    2.970553e+00
3.242773e+00    2.949680e+00
3.353902e+00    2.966541e+00
3.465031e+00    2.929842e+00
3.576160e+00    3.007144e+00
3.687289e+00    3.095640e+00
3.798418e+00    2.951684e+00
3.909547e+00    3.025983e+00
4.020676e+00    3.025285e+00
4.131806e+00    3.039526e+00
4.242935e+00    3.035920e+00
4.354064e+00    3.074269e+00
4.465193e+00    3.046229e+00
4.576322e+00    3.153268e+00
4.687451e+00    3.069607e+00
4.798580e+00    3.115799e+00
4.909709e+00    3.193027e+00
5.020838e+00    3.085606e+00
5.131967e+00    3.100552e+00
5.243096e+00    3.107142e+00
5.354225e+00    3.129153e+00
5.465354e+00    3.094118e+00
5.576483e+00    3.065278e+00
5.687612e+00    3.071622e+00
5.798741e+00    3.085348e+00
5.909870e+00    3.054729e+00
6.020999e+00    3.063257e+00
6.132128e+00    3.091321e+00
6.243257e+00    3.066407e+00
6.354386e+00    3.042791e+00
6.465515e+00    3.052611e+00
6.576644e+00    3.051074e+00
6.687773e+00    3.160798e+00
6.798902e+00    3.038550e+00
6.910031e+00    3.018191e+00
7.021160e+00    3.035670e+00
7.132289e+00    3.004482e+00
7.243418e+00    2.969689e+00
7.354547e+00    3.070100e+00
7.465676e+00    2.972286e+00
7.576805e+00    3.025521e+00
7.687934e+00    2.965814e+00
7.799063e+00    2.930451e+00
7.910192e+00    2.944052e+00
8.021321e+00    2.933203e+00
8.132450e+00    2.895764e+00
8.243579e+00    2.972086e+00
8.354708e+00    2.906709e+00
8.465837e+00    2.892386e+00
8.576966e+00    2.791010e+00
8.688095e+00    2.827817e+00
8.799224e+00    2.872938e+00
8.910353e+00    2.800138e+00
9.021482e+00    2.812455e+00
9.132611e+00    2.813800e+00
9.243740e+00    2.782265e+00
9.354869e+00    2.773710e+00
9.465998e+00    2.791306e+00
9.577127e+00    2.743321e+00
9.688256e+00    2.726246e+00
9.799385e+00    2.723619e+00
9.910514e+00    2.697732e+00
1.002164e+01    2.692404e+00
1.013277e+01    2.615227e+00
1.024390e+01    2.594052e+00
1.035503e+01    2.628025e+00
1.046616e+01    2.574031e+00
1.057729e+01    2.619347e+00
1.068842e+01    2.597816e+00
1.079955e+01    2.502902e+00
1.091068e+01    2.545021e+00
1.102180e+01    2.530997e+00
1.113293e+01    2.468295e+00
1.124406e+01    2.463098e+00
1.135519e+01    2.418025e+00
1.146632e+01    2.409666e+00
1.157745e+01    2.407599e+00
1.168858e+01    2.350352e+00
1.179971e+01    2.385518e+00
1.191084e+01    2.314140e+00
1.202197e+01    2.379460e+00
1.213309e+01    2.307276e+00
1.224422e+01    2.357684e+00
1.235535e+01    2.330475e+00
1.246648e+01    2.337270e+00
1.257761e+01    2.380359e+00
1.268874e+01    2.462487e+00
1.279987e+01    2.626616e+00
1.291100e+01    3.210648e+00
1.302213e+01    6.222753e+00
1.313326e+01    1.394532e+01
1.324438e+01    1.016234e+01
1.335551e+01    4.032429e+00
1.346664e+01    2.796391e+00
1.357777e+01    2.362099e+00
1.368890e+01    2.226429e+00
1.380003e+01    2.154878e+00
1.391116e+01    2.065859e+00
1.402229e+01    2.024579e+00
1.413342e+01    2.047179e+00
1.424455e+01    2.012183e+00
1.435568e+01    1.969875e+00
1.446680e+01    1.929729e+00
1.457793e+01    1.871477e+00
1.468906e+01    1.940499e+00
1.480019e+01    1.926679e+00
1.491132e+01    1.974658e+00
1.502245e+01    2.192208e+00
1.513358e+01    3.446543e+00
1.524471e+01    5.427047e+00
1.535584e+01    3.430313e+00
1.546697e+01    2.125942e+00
1.557809e+01    1.852301e+00
1.568922e+01    1.724146e+00
1.580035e+01    1.664875e+00
1.591148e+01    1.640584e+00
1.602261e+01    1.632025e+00
1.613374e+01    1.572213e+00
1.624487e+01    1.555822e+00
1.635600e+01    1.570050e+00
1.646713e+01    1.532740e+00
1.657826e+01    1.496112e+00
1.668938e+01    1.507947e+00
1.680051e+01    1.489016e+00
1.691164e+01    1.466411e+00
1.702277e+01    1.442656e+00
1.713390e+01    1.430054e+00
1.724503e+01    1.412027e+00
1.735616e+01    1.388924e+00
1.746729e+01    1.380393e+00
1.757842e+01    1.362702e+00
1.768955e+01    1.352830e+00
1.780067e+01    1.302728e+00
1.791180e+01    1.324902e+00
1.802293e+01    1.294413e+00
1.813406e+01    1.296839e+00
1.824519e+01    1.278728e+00
1.835632e+01    1.249235e+00
1.846745e+01    1.250368e+00
1.857858e+01    1.243627e+00
1.868971e+01    1.227613e+00
1.880084e+01    1.213181e+00
1.891196e+01    1.220006e+00
1.902309e+01    1.190157e+00
1.913422e+01    1.205601e+00
1.924535e+01    1.155543e+00
1.935648e+01    1.159742e+00
1.946761e+01    1.171022e+00
1.957874e+01    1.147045e+00
1.968987e+01    1.139247e+00
1.980100e+01    1.139187e+00
1.991213e+01    1.127408e+00
2.002325e+01    1.115183e+00
2.013438e+01    1.107170e+00
2.024551e+01    1.094559e+00
2.035664e+01    1.068688e+00
2.046777e+01    1.061412e+00
2.057890e+01    1.087139e+00
2.069003e+01    1.084160e+00
2.080116e+01    1.083064e+00
2.091229e+01    1.115122e+00
2.102342e+01    1.082214e+00
2.113455e+01    1.072240e+00
2.124567e+01    1.098377e+00
2.135680e+01    1.101835e+00
2.146793e+01    1.238107e+00
2.157906e+01    1.452712e+00
2.169019e+01    2.373066e+00
2.180132e+01    5.530906e+00
2.191245e+01    8.586416e+00
2.202358e+01    3.337972e+00
2.213471e+01    1.693815e+00
2.224584e+01    1.267619e+00
2.235696e+01    1.121084e+00
2.246809e+01    1.017363e+00
2.257922e+01    9.903285e-01
2.269035e+01    9.577191e-01
2.280148e+01    9.432241e-01
2.291261e+01    9.033841e-01
2.302374e+01    8.830988e-01
2.313487e+01    8.913077e-01
2.324600e+01    8.785575e-01
2.335713e+01    8.523771e-01
2.346825e+01    8.334410e-01
2.357938e+01    8.327510e-01
2.369051e+01    8.230693e-01
2.380164e+01    7.971353e-01
2.391277e+01    7.902381e-01
2.402390e+01    7.658475e-01
2.413503e+01    7.739673e-01
2.424616e+01    8.010979e-01
2.435729e+01    7.837499e-01
2.446842e+01    7.816925e-01
2.457954e+01    7.778572e-01
2.469067e+01    7.706717e-01
2.480180e+01    7.902201e-01
2.491293e+01    8.019577e-01
2.502406e+01    7.855559e-01
2.513519e+01    7.946398e-01
2.524632e+01    8.394822e-01
2.535745e+01    8.805411e-01
2.546858e+01    9.215556e-01
2.557971e+01    1.070007e+00
2.569083e+01    1.416069e+00
2.580196e+01    2.738164e+00
2.591309e+01    6.202962e+00
2.602422e+01    5.099787e+00
2.613535e+01    1.976102e+00
2.624648e+01    1.246330e+00
2.635761e+01    1.015481e+00
2.646874e+01    9.216429e-01
2.657987e+01    8.907959e-01
2.669100e+01    8.780413e-01
2.680212e+01    8.708562e-01
2.691325e+01    9.196869e-01
2.702438e+01    1.042104e+00
2.713551e+01    1.660788e+00
2.724664e+01    2.031654e+00
2.735777e+01    1.154133e+00
2.746890e+01    9.201146e-01
2.758003e+01    8.637043e-01
2.769116e+01    8.006063e-01
2.780229e+01    7.738671e-01
2.791342e+01    7.833413e-01
2.802454e+01    7.803179e-01
2.813567e+01    7.690261e-01
2.824680e+01    7.516162e-01
2.835793e+01    7.526113e-01
2.846906e+01    7.513216e-01
2.858019e+01    7.635413e-01
2.869132e+01    7.368706e-01
2.880245e+01    7.480617e-01
2.891358e+01    7.362173e-01
2.902471e+01    7.312696e-01
2.913583e+01    7.445105e-01
2.924696e+01    7.275164e-01
2.935809e+01    7.236781e-01
2.946922e+01    7.386199e-01
2.958035e+01    7.285395e-01
2.969148e+01    7.113811e-01
2.980261e+01    7.254375e-01
2.991374e+01    7.158607e-01
3.002487e+01    7.441303e-01
3.013600e+01    7.348955e-01
3.024712e+01    7.107037e-01
3.035825e+01    6.850581e-01
3.046938e+01    6.931093e-01
3.058051e+01    7.109351e-01
3.069164e+01    6.854771e-01
3.080277e+01    7.251920e-01
3.091390e+01    7.040610e-01
3.102503e+01    6.980757e-01
3.113616e+01    7.319477e-01
3.124729e+01    7.176927e-01
3.135841e+01    7.199311e-01
3.146954e+01    7.460701e-01
3.158067e+01    8.104432e-01
3.169180e+01    9.575751e-01
3.180293e+01    1.393438e+00
3.191406e+01    2.098564e+00
3.202519e+01    1.238611e+00
3.213632e+01    8.549211e-01
3.224745e+01    7.679464e-01
3.235858e+01    7.156300e-01
3.246970e+01    7.152893e-01
3.254908e+01    7.120280e-01