Folder: myspot_2024_07/XRD/Activation ramp (part 27)

File: 2024-07-27_002_Ru-CGO-ex_Activtation_ramp_000002_data_000123.dat
# == pyFAI calibration ==
# Distance Sample to Detector: 0.4 m
# PONI: 9.750e-02, 1.135e-01 m
# Rotations: -0.000175 0.000000 -0.000000 rad
#
# == Fit2d calibration ==
# Distance Sample-beamCenter: 400.000 mm
# Center: x=1514.000, y=1300.000 pix
# Tilt: 0.010 deg  TiltPlanRot: 0.010 deg
#
# Detector Detector	 Spline= None	 PixelSize= 7.500e-05, 7.500e-05 m
#    Detector has a mask: False
#    Detector has a dark current: False
#    detector has a flat field: False
#
# Wavelength: 6.888e-11 m
# Mask applied: user provided
# Dark current applied: False
# Flat field applied: False
# Polarization factor: 0.99
# Normalization factor: 1.0
# --> /home/myspot/data/2024_07_Rosario/Ru-CGO-ex/2024-07-27_002_Ru-CGO-ex_Activtation_ramp_000002_data_000123.dat
#       q_nm^-1             I
  2.003187e-02    7.711996e-02
  1.311609e-01    4.215758e-02
  2.422899e-01    9.208584e-02
  3.534189e-01    2.551572e-02
  4.645479e-01    5.671686e-02
  5.756770e-01    5.998382e-02
  6.868060e-01    2.863989e-02
  7.979350e-01    1.729198e-01
  9.090640e-01    6.135598e-01
  1.020193e+00    1.014359e+00
  1.131322e+00    1.428671e+00
  1.242451e+00    2.327706e+00
  1.353580e+00    2.619391e+00
  1.464709e+00    2.729887e+00
  1.575838e+00    2.904312e+00
  1.686967e+00    2.855540e+00
  1.798096e+00    2.670805e+00
  1.909225e+00    2.721088e+00
  2.020354e+00    2.902625e+00
  2.131483e+00    2.622534e+00
  2.242612e+00    2.673511e+00
  2.353741e+00    2.688846e+00
  2.464870e+00    2.717029e+00
  2.575999e+00    2.795719e+00
  2.687128e+00    2.797620e+00
  2.798257e+00    2.804700e+00
  2.909386e+00    2.897325e+00
  3.020515e+00    2.895169e+00
  3.131644e+00    2.830729e+00
  3.242773e+00    2.840744e+00
  3.353902e+00    2.929697e+00
  3.465031e+00    2.870033e+00
  3.576160e+00    2.862512e+00
  3.687289e+00    2.908328e+00
  3.798418e+00    2.918386e+00
  3.909547e+00    2.999423e+00
  4.020676e+00    2.979456e+00
  4.131806e+00    2.984735e+00
  4.242935e+00    3.007144e+00
  4.354064e+00    3.063792e+00
  4.465193e+00    3.053314e+00
  4.576322e+00    2.981936e+00
  4.687451e+00    3.083511e+00
  4.798580e+00    3.055548e+00
  4.909709e+00    3.123698e+00
  5.020838e+00    3.091759e+00
  5.131967e+00    3.091838e+00
  5.243096e+00    3.077082e+00
  5.354225e+00    3.051717e+00
  5.465354e+00    3.015755e+00
  5.576483e+00    2.954910e+00
  5.687612e+00    3.053319e+00
  5.798741e+00    3.049826e+00
  5.909870e+00    2.997661e+00
  6.020999e+00    2.943133e+00
  6.132128e+00    3.085715e+00
  6.243257e+00    2.942832e+00
  6.354386e+00    2.981714e+00
  6.465515e+00    2.992263e+00
  6.576644e+00    3.018683e+00
  6.687773e+00    3.052679e+00
  6.798902e+00    2.998010e+00
  6.910031e+00    2.946215e+00
  7.021160e+00    2.949417e+00
  7.132289e+00    2.976130e+00
  7.243418e+00    2.876838e+00
  7.354547e+00    2.951769e+00
  7.465676e+00    2.930942e+00
  7.576805e+00    2.860642e+00
  7.687934e+00    2.919524e+00
  7.799063e+00    2.893324e+00
  7.910192e+00    2.874280e+00
  8.021321e+00    2.924757e+00
  8.132450e+00    2.879752e+00
  8.243579e+00    2.948703e+00
  8.354708e+00    2.893967e+00
  8.465837e+00    2.838159e+00
  8.576966e+00    2.813851e+00
  8.688095e+00    2.813088e+00
  8.799224e+00    2.806958e+00
  8.910353e+00    2.817194e+00
  9.021482e+00    2.789039e+00
  9.132611e+00    2.760830e+00
  9.243740e+00    2.761365e+00
  9.354869e+00    2.702310e+00
  9.465998e+00    2.738978e+00
  9.577127e+00    2.703152e+00
  9.688256e+00    2.690633e+00
  9.799385e+00    2.739666e+00
  9.910514e+00    2.665225e+00
  1.002164e+01    2.630622e+00
  1.013277e+01    2.620503e+00
  1.024390e+01    2.632290e+00
  1.035503e+01    2.651948e+00
  1.046616e+01    2.580419e+00
  1.057729e+01    2.514174e+00
  1.068842e+01    2.565482e+00
  1.079955e+01    2.539755e+00
  1.091068e+01    2.468228e+00
  1.102180e+01    2.435357e+00
  1.113293e+01    2.396443e+00
  1.124406e+01    2.456681e+00
  1.135519e+01    2.398150e+00
  1.146632e+01    2.388996e+00
  1.157745e+01    2.330755e+00
  1.168858e+01    2.349204e+00
  1.179971e+01    2.390577e+00
  1.191084e+01    2.267703e+00
  1.202197e+01    2.304781e+00
  1.213309e+01    2.280046e+00
  1.224422e+01    2.262840e+00
  1.235535e+01    2.331557e+00
  1.246648e+01    2.338665e+00
  1.257761e+01    2.361809e+00
  1.268874e+01    2.410642e+00
  1.279987e+01    2.621419e+00
  1.291100e+01    3.253239e+00
  1.302213e+01    6.204152e+00
  1.313326e+01    1.458315e+01
  1.324438e+01    1.211183e+01
  1.335551e+01    4.403711e+00
  1.346664e+01    2.874393e+00
  1.357777e+01    2.433382e+00
  1.368890e+01    2.263916e+00
  1.380003e+01    2.192238e+00
  1.391116e+01    2.099249e+00
  1.402229e+01    2.029218e+00
  1.413342e+01    2.013117e+00
  1.424455e+01    1.951658e+00
  1.435568e+01    1.922235e+00
  1.446680e+01    1.864878e+00
  1.457793e+01    1.889910e+00
  1.468906e+01    1.904954e+00
  1.480019e+01    1.884293e+00
  1.491132e+01    1.942982e+00
  1.502245e+01    2.220583e+00
  1.513358e+01    3.423938e+00
  1.524471e+01    5.637906e+00
  1.535584e+01    3.876036e+00
  1.546697e+01    2.239254e+00
  1.557809e+01    1.820810e+00
  1.568922e+01    1.740141e+00
  1.580035e+01    1.677860e+00
  1.591148e+01    1.577381e+00
  1.602261e+01    1.569051e+00
  1.613374e+01    1.547985e+00
  1.624487e+01    1.583171e+00
  1.635600e+01    1.525212e+00
  1.646713e+01    1.517030e+00
  1.657826e+01    1.458905e+00
  1.668938e+01    1.440200e+00
  1.680051e+01    1.432312e+00
  1.691164e+01    1.425607e+00
  1.702277e+01    1.447888e+00
  1.713390e+01    1.393182e+00
  1.724503e+01    1.376904e+00
  1.735616e+01    1.339609e+00
  1.746729e+01    1.388934e+00
  1.757842e+01    1.350913e+00
  1.768955e+01    1.322761e+00
  1.780067e+01    1.314135e+00
  1.791180e+01    1.306998e+00
  1.802293e+01    1.271874e+00
  1.813406e+01    1.277825e+00
  1.824519e+01    1.277741e+00
  1.835632e+01    1.265303e+00
  1.846745e+01    1.237105e+00
  1.857858e+01    1.216914e+00
  1.868971e+01    1.215120e+00
  1.880084e+01    1.224531e+00
  1.891196e+01    1.213552e+00
  1.902309e+01    1.201237e+00
  1.913422e+01    1.172681e+00
  1.924535e+01    1.164042e+00
  1.935648e+01    1.189363e+00
  1.946761e+01    1.133446e+00
  1.957874e+01    1.139317e+00
  1.968987e+01    1.128576e+00
  1.980100e+01    1.156214e+00
  1.991213e+01    1.109900e+00
  2.002325e+01    1.108314e+00
  2.013438e+01    1.078472e+00
  2.024551e+01    1.077104e+00
  2.035664e+01    1.088284e+00
  2.046777e+01    1.085685e+00
  2.057890e+01    1.064792e+00
  2.069003e+01    1.064019e+00
  2.080116e+01    1.064308e+00
  2.091229e+01    1.068937e+00
  2.102342e+01    1.062342e+00
  2.113455e+01    1.074214e+00
  2.124567e+01    1.101284e+00
  2.135680e+01    1.151735e+00
  2.146793e+01    1.244513e+00
  2.157906e+01    1.456532e+00
  2.169019e+01    2.262907e+00
  2.180132e+01    5.488821e+00
  2.191245e+01    9.457968e+00
  2.202358e+01    3.962538e+00
  2.213471e+01    1.842239e+00
  2.224584e+01    1.276983e+00
  2.235696e+01    1.143862e+00
  2.246809e+01    1.047361e+00
  2.257922e+01    9.751998e-01
  2.269035e+01    9.420661e-01
  2.280148e+01    9.233177e-01
  2.291261e+01    9.065698e-01
  2.302374e+01    9.024644e-01
  2.313487e+01    8.961619e-01
  2.324600e+01    8.587049e-01
  2.335713e+01    8.625374e-01
  2.346825e+01    8.329629e-01
  2.357938e+01    8.238599e-01
  2.369051e+01    8.310066e-01
  2.380164e+01    8.089604e-01
  2.391277e+01    7.863734e-01
  2.402390e+01    7.834907e-01
  2.413503e+01    7.661051e-01
  2.424616e+01    7.538249e-01
  2.435729e+01    7.864432e-01
  2.446842e+01    7.878020e-01
  2.457954e+01    8.018132e-01
  2.469067e+01    7.897152e-01
  2.480180e+01    8.017164e-01
  2.491293e+01    7.898464e-01
  2.502406e+01    8.005666e-01
  2.513519e+01    8.089628e-01
  2.524632e+01    8.371537e-01
  2.535745e+01    8.812990e-01
  2.546858e+01    9.398271e-01
  2.557971e+01    1.073751e+00
  2.569083e+01    1.368441e+00
  2.580196e+01    2.594049e+00
  2.591309e+01    6.294085e+00
  2.602422e+01    6.329210e+00
  2.613535e+01    2.348145e+00
  2.624648e+01    1.338104e+00
  2.635761e+01    1.037391e+00
  2.646874e+01    9.606727e-01
  2.657987e+01    9.037200e-01
  2.669100e+01    9.133189e-01
  2.680212e+01    8.749143e-01
  2.691325e+01    9.031586e-01
  2.702438e+01    1.025290e+00
  2.713551e+01    1.594925e+00
  2.724664e+01    2.277869e+00
  2.735777e+01    1.302540e+00
  2.746890e+01    9.576255e-01
  2.758003e+01    8.582488e-01
  2.769116e+01    8.307109e-01
  2.780229e+01    8.130955e-01
  2.791342e+01    7.834816e-01
  2.802454e+01    7.968078e-01
  2.813567e+01    7.883669e-01
  2.824680e+01    7.822565e-01
  2.835793e+01    7.576590e-01
  2.846906e+01    7.503688e-01
  2.858019e+01    7.397975e-01
  2.869132e+01    7.392639e-01
  2.880245e+01    7.460543e-01
  2.891358e+01    7.143372e-01
  2.902471e+01    7.373945e-01
  2.913583e+01    7.351040e-01
  2.924696e+01    7.214266e-01
  2.935809e+01    7.249550e-01
  2.946922e+01    7.228044e-01
  2.958035e+01    7.382004e-01
  2.969148e+01    7.089233e-01
  2.980261e+01    7.064617e-01
  2.991374e+01    7.324059e-01
  3.002487e+01    7.231595e-01
  3.013600e+01    7.228042e-01
  3.024712e+01    6.821602e-01
  3.035825e+01    6.915497e-01
  3.046938e+01    7.067155e-01
  3.058051e+01    6.880289e-01
  3.069164e+01    7.127286e-01
  3.080277e+01    7.122321e-01
  3.091390e+01    6.962276e-01
  3.102503e+01    6.801534e-01
  3.113616e+01    7.117020e-01
  3.124729e+01    7.027581e-01
  3.135841e+01    7.400567e-01
  3.146954e+01    7.387463e-01
  3.158067e+01    7.927451e-01
  3.169180e+01    9.231538e-01
  3.180293e+01    1.375944e+00
  3.191406e+01    2.262496e+00
  3.202519e+01    1.456453e+00
  3.213632e+01    9.292328e-01
  3.224745e+01    7.677257e-01
  3.235858e+01    7.416727e-01
  3.246970e+01    7.019147e-01
  3.254908e+01    7.208050e-01

File: 2024-07-27_002_Ru-CGO-ex_Activtation_ramp_000002_data_000126.dat
# == pyFAI calibration ==
# Distance Sample to Detector: 0.4 m
# PONI: 9.750e-02, 1.135e-01 m
# Rotations: -0.000175 0.000000 -0.000000 rad
#
# == Fit2d calibration ==
# Distance Sample-beamCenter: 400.000 mm
# Center: x=1514.000, y=1300.000 pix
# Tilt: 0.010 deg  TiltPlanRot: 0.010 deg
#
# Detector Detector	 Spline= None	 PixelSize= 7.500e-05, 7.500e-05 m
#    Detector has a mask: False
#    Detector has a dark current: False
#    detector has a flat field: False
#
# Wavelength: 6.888e-11 m
# Mask applied: user provided
# Dark current applied: False
# Flat field applied: False
# Polarization factor: 0.99
# Normalization factor: 1.0
# --> /home/myspot/data/2024_07_Rosario/Ru-CGO-ex/2024-07-27_002_Ru-CGO-ex_Activtation_ramp_000002_data_000126.dat
#       q_nm^-1             I
  2.003187e-02    0.000000e+00
  1.311609e-01    5.030073e-02
  2.422899e-01    4.843175e-02
  3.534189e-01    3.086845e-02
  4.645479e-01    4.735973e-02
  5.756770e-01    5.872350e-02
  6.868060e-01    4.484809e-02
  7.979350e-01    1.706499e-01
  9.090640e-01    5.318752e-01
  1.020193e+00    1.129631e+00
  1.131322e+00    1.441190e+00
  1.242451e+00    2.163648e+00
  1.353580e+00    2.541579e+00
  1.464709e+00    2.764503e+00
  1.575838e+00    3.026059e+00
  1.686967e+00    2.762334e+00
  1.798096e+00    2.657724e+00
  1.909225e+00    2.845229e+00
  2.020354e+00    2.634677e+00
  2.131483e+00    2.654576e+00
  2.242612e+00    2.626258e+00
  2.353741e+00    2.771460e+00
  2.464870e+00    2.860558e+00
  2.575999e+00    2.734887e+00
  2.687128e+00    2.846140e+00
  2.798257e+00    2.838159e+00
  2.909386e+00    2.900774e+00
  3.020515e+00    2.735503e+00
  3.131644e+00    2.895424e+00
  3.242773e+00    2.859043e+00
  3.353902e+00    2.896098e+00
  3.465031e+00    2.860349e+00
  3.576160e+00    2.944703e+00
  3.687289e+00    3.055461e+00
  3.798418e+00    2.940373e+00
  3.909547e+00    2.919354e+00
  4.020676e+00    2.963558e+00
  4.131806e+00    3.048882e+00
  4.242935e+00    3.045929e+00
  4.354064e+00    2.995883e+00
  4.465193e+00    3.081737e+00
  4.576322e+00    3.028831e+00
  4.687451e+00    3.096216e+00
  4.798580e+00    3.041201e+00
  4.909709e+00    3.022329e+00
  5.020838e+00    3.076736e+00
  5.131967e+00    3.163296e+00
  5.243096e+00    3.084404e+00
  5.354225e+00    3.118084e+00
  5.465354e+00    3.023787e+00
  5.576483e+00    3.118059e+00
  5.687612e+00    3.125674e+00
  5.798741e+00    3.016163e+00
  5.909870e+00    2.954951e+00
  6.020999e+00    3.006494e+00
  6.132128e+00    3.145163e+00
  6.243257e+00    3.082500e+00
  6.354386e+00    2.949018e+00
  6.465515e+00    3.046459e+00
  6.576644e+00    3.010973e+00
  6.687773e+00    2.998017e+00
  6.798902e+00    3.001238e+00
  6.910031e+00    2.991915e+00
  7.021160e+00    2.964916e+00
  7.132289e+00    2.964467e+00
  7.243418e+00    3.031849e+00
  7.354547e+00    2.942742e+00
  7.465676e+00    2.969656e+00
  7.576805e+00    2.900425e+00
  7.687934e+00    2.920534e+00
  7.799063e+00    2.895593e+00
  7.910192e+00    2.895119e+00
  8.021321e+00    2.929002e+00
  8.132450e+00    2.886372e+00
  8.243579e+00    2.985452e+00
  8.354708e+00    2.845265e+00
  8.465837e+00    2.857934e+00
  8.576966e+00    2.832101e+00
  8.688095e+00    2.870596e+00
  8.799224e+00    2.785276e+00
  8.910353e+00    2.869791e+00
  9.021482e+00    2.794380e+00
  9.132611e+00    2.796688e+00
  9.243740e+00    2.766014e+00
  9.354869e+00    2.751272e+00
  9.465998e+00    2.671859e+00
  9.577127e+00    2.732503e+00
  9.688256e+00    2.736547e+00
  9.799385e+00    2.684874e+00
  9.910514e+00    2.685399e+00
  1.002164e+01    2.654576e+00
  1.013277e+01    2.663306e+00
  1.024390e+01    2.610284e+00
  1.035503e+01    2.583267e+00
  1.046616e+01    2.599009e+00
  1.057729e+01    2.569171e+00
  1.068842e+01    2.498549e+00
  1.079955e+01    2.451913e+00
  1.091068e+01    2.506501e+00
  1.102180e+01    2.420918e+00
  1.113293e+01    2.479609e+00
  1.124406e+01    2.456332e+00
  1.135519e+01    2.412997e+00
  1.146632e+01    2.333032e+00
  1.157745e+01    2.397746e+00
  1.168858e+01    2.366381e+00
  1.179971e+01    2.337598e+00
  1.191084e+01    2.310017e+00
  1.202197e+01    2.322782e+00
  1.213309e+01    2.285022e+00
  1.224422e+01    2.310645e+00
  1.235535e+01    2.299809e+00
  1.246648e+01    2.348499e+00
  1.257761e+01    2.328536e+00
  1.268874e+01    2.420749e+00
  1.279987e+01    2.665193e+00
  1.291100e+01    3.265540e+00
  1.302213e+01    6.203591e+00
  1.313326e+01    1.464286e+01
  1.324438e+01    1.205826e+01
  1.335551e+01    4.446202e+00
  1.346664e+01    2.912390e+00
  1.357777e+01    2.473951e+00
  1.368890e+01    2.271948e+00
  1.380003e+01    2.156254e+00
  1.391116e+01    2.068822e+00
  1.402229e+01    1.995380e+00
  1.413342e+01    1.998513e+00
  1.424455e+01    1.963805e+00
  1.435568e+01    1.933231e+00
  1.446680e+01    1.890184e+00
  1.457793e+01    1.920972e+00
  1.468906e+01    1.908184e+00
  1.480019e+01    1.887080e+00
  1.491132e+01    1.952888e+00
  1.502245e+01    2.176210e+00
  1.513358e+01    3.445399e+00
  1.524471e+01    5.704052e+00
  1.535584e+01    3.889534e+00
  1.546697e+01    2.244616e+00
  1.557809e+01    1.840999e+00
  1.568922e+01    1.746714e+00
  1.580035e+01    1.670545e+00
  1.591148e+01    1.622136e+00
  1.602261e+01    1.618287e+00
  1.613374e+01    1.575521e+00
  1.624487e+01    1.532750e+00
  1.635600e+01    1.543836e+00
  1.646713e+01    1.512471e+00
  1.657826e+01    1.490559e+00
  1.668938e+01    1.478039e+00
  1.680051e+01    1.464812e+00
  1.691164e+01    1.442653e+00
  1.702277e+01    1.417737e+00
  1.713390e+01    1.423432e+00
  1.724503e+01    1.397210e+00
  1.735616e+01    1.357094e+00
  1.746729e+01    1.361383e+00
  1.757842e+01    1.355024e+00
  1.768955e+01    1.327265e+00
  1.780067e+01    1.286737e+00
  1.791180e+01    1.299642e+00
  1.802293e+01    1.293106e+00
  1.813406e+01    1.281860e+00
  1.824519e+01    1.245461e+00
  1.835632e+01    1.239867e+00
  1.846745e+01    1.251828e+00
  1.857858e+01    1.227549e+00
  1.868971e+01    1.213817e+00
  1.880084e+01    1.208933e+00
  1.891196e+01    1.183064e+00
  1.902309e+01    1.189139e+00
  1.913422e+01    1.150432e+00
  1.924535e+01    1.175835e+00
  1.935648e+01    1.149797e+00
  1.946761e+01    1.170318e+00
  1.957874e+01    1.160261e+00
  1.968987e+01    1.119485e+00
  1.980100e+01    1.136515e+00
  1.991213e+01    1.087310e+00
  2.002325e+01    1.104421e+00
  2.013438e+01    1.104905e+00
  2.024551e+01    1.079191e+00
  2.035664e+01    1.098737e+00
  2.046777e+01    1.097842e+00
  2.057890e+01    1.090893e+00
  2.069003e+01    1.069663e+00
  2.080116e+01    1.051744e+00
  2.091229e+01    1.062575e+00
  2.102342e+01    1.054019e+00
  2.113455e+01    1.083674e+00
  2.124567e+01    1.088003e+00
  2.135680e+01    1.129414e+00
  2.146793e+01    1.224904e+00
  2.157906e+01    1.455189e+00
  2.169019e+01    2.282767e+00
  2.180132e+01    5.415602e+00
  2.191245e+01    9.498196e+00
  2.202358e+01    4.003769e+00
  2.213471e+01    1.873375e+00
  2.224584e+01    1.329432e+00
  2.235696e+01    1.137080e+00
  2.246809e+01    1.034256e+00
  2.257922e+01    9.617869e-01
  2.269035e+01    9.378379e-01
  2.280148e+01    9.370788e-01
  2.291261e+01    8.869581e-01
  2.302374e+01    8.800287e-01
  2.313487e+01    8.868877e-01
  2.324600e+01    8.665076e-01
  2.335713e+01    8.507887e-01
  2.346825e+01    8.163151e-01
  2.357938e+01    8.201936e-01
  2.369051e+01    8.256897e-01
  2.380164e+01    8.054562e-01
  2.391277e+01    7.791730e-01
  2.402390e+01    7.710613e-01
  2.413503e+01    7.807908e-01
  2.424616e+01    7.622416e-01
  2.435729e+01    7.647281e-01
  2.446842e+01    7.943162e-01
  2.457954e+01    8.092038e-01
  2.469067e+01    7.855070e-01
  2.480180e+01    7.855281e-01
  2.491293e+01    8.097723e-01
  2.502406e+01    7.827201e-01
  2.513519e+01    8.270215e-01
  2.524632e+01    8.327150e-01
  2.535745e+01    9.003636e-01
  2.546858e+01    9.061685e-01
  2.557971e+01    1.049003e+00
  2.569083e+01    1.399854e+00
  2.580196e+01    2.542177e+00
  2.591309e+01    6.295153e+00
  2.602422e+01    6.363440e+00
  2.613535e+01    2.355763e+00
  2.624648e+01    1.352890e+00
  2.635761e+01    1.044678e+00
  2.646874e+01    9.478957e-01
  2.657987e+01    9.099838e-01
  2.669100e+01    9.067328e-01
  2.680212e+01    8.852353e-01
  2.691325e+01    9.112478e-01
  2.702438e+01    1.061716e+00
  2.713551e+01    1.590194e+00
  2.724664e+01    2.271848e+00
  2.735777e+01    1.319624e+00
  2.746890e+01    9.868997e-01
  2.758003e+01    8.691016e-01
  2.769116e+01    8.104363e-01
  2.780229e+01    8.056836e-01
  2.791342e+01    7.870243e-01
  2.802454e+01    7.688152e-01
  2.813567e+01    7.702282e-01
  2.824680e+01    7.700626e-01
  2.835793e+01    7.679112e-01
  2.846906e+01    7.473065e-01
  2.858019e+01    7.809932e-01
  2.869132e+01    7.361031e-01
  2.880245e+01    7.344109e-01
  2.891358e+01    7.390730e-01
  2.902471e+01    7.406051e-01
  2.913583e+01    7.311467e-01
  2.924696e+01    7.270705e-01
  2.935809e+01    7.232844e-01
  2.946922e+01    7.086388e-01
  2.958035e+01    7.113777e-01
  2.969148e+01    7.343324e-01
  2.980261e+01    7.133089e-01
  2.991374e+01    7.077349e-01
  3.002487e+01    7.101237e-01
  3.013600e+01    7.084743e-01
  3.024712e+01    7.284769e-01
  3.035825e+01    7.061285e-01
  3.046938e+01    6.896712e-01
  3.058051e+01    6.887804e-01
  3.069164e+01    6.890013e-01
  3.080277e+01    7.012219e-01
  3.091390e+01    7.163335e-01
  3.102503e+01    6.929097e-01
  3.113616e+01    7.297678e-01
  3.124729e+01    7.120133e-01
  3.135841e+01    7.288243e-01
  3.146954e+01    7.776959e-01
  3.158067e+01    8.080235e-01
  3.169180e+01    9.099742e-01
  3.180293e+01    1.375544e+00
  3.191406e+01    2.256553e+00
  3.202519e+01    1.451872e+00
  3.213632e+01    9.169965e-01
  3.224745e+01    7.732404e-01
  3.235858e+01    7.695028e-01
  3.246970e+01    7.428396e-01
  3.254908e+01    7.351834e-01