Folder: myspot_2024_07/XRD/Activation ramp (part 25)

File: 2024-07-27_002_Ru-CGO-ex_Activtation_ramp_000002_data_000114.dat
# == pyFAI calibration ==
# Distance Sample to Detector: 0.4 m
# PONI: 9.750e-02, 1.135e-01 m
# Rotations: -0.000175 0.000000 -0.000000 rad
#
# == Fit2d calibration ==
# Distance Sample-beamCenter: 400.000 mm
# Center: x=1514.000, y=1300.000 pix
# Tilt: 0.010 deg  TiltPlanRot: 0.010 deg
#
# Detector Detector	 Spline= None	 PixelSize= 7.500e-05, 7.500e-05 m
#    Detector has a mask: False
#    Detector has a dark current: False
#    detector has a flat field: False
#
# Wavelength: 6.888e-11 m
# Mask applied: user provided
# Dark current applied: False
# Flat field applied: False
# Polarization factor: 0.99
# Normalization factor: 1.0
# --> /home/myspot/data/2024_07_Rosario/Ru-CGO-ex/2024-07-27_002_Ru-CGO-ex_Activtation_ramp_000002_data_000114.dat
#       q_nm^-1             I
  2.003187e-02    2.195909e-01
  1.311609e-01    9.779201e-02
  2.422899e-01    1.402389e-02
  3.534189e-01    2.301210e-02
  4.645479e-01    5.420608e-02
  5.756770e-01    5.299187e-02
  6.868060e-01    3.593352e-02
  7.979350e-01    1.454208e-01
  9.090640e-01    5.800999e-01
  1.020193e+00    1.092812e+00
  1.131322e+00    1.471896e+00
  1.242451e+00    2.204573e+00
  1.353580e+00    2.599477e+00
  1.464709e+00    2.781246e+00
  1.575838e+00    2.892605e+00
  1.686967e+00    2.781385e+00
  1.798096e+00    2.799068e+00
  1.909225e+00    2.809496e+00
  2.020354e+00    2.670232e+00
  2.131483e+00    2.804104e+00
  2.242612e+00    2.674894e+00
  2.353741e+00    2.708048e+00
  2.464870e+00    2.684556e+00
  2.575999e+00    2.794815e+00
  2.687128e+00    2.736181e+00
  2.798257e+00    2.753646e+00
  2.909386e+00    2.786700e+00
  3.020515e+00    2.702207e+00
  3.131644e+00    2.893383e+00
  3.242773e+00    2.972349e+00
  3.353902e+00    2.857965e+00
  3.465031e+00    2.882195e+00
  3.576160e+00    2.948207e+00
  3.687289e+00    2.955533e+00
  3.798418e+00    2.915216e+00
  3.909547e+00    2.896605e+00
  4.020676e+00    3.014413e+00
  4.131806e+00    3.000445e+00
  4.242935e+00    3.049661e+00
  4.354064e+00    2.987293e+00
  4.465193e+00    3.013441e+00
  4.576322e+00    3.015696e+00
  4.687451e+00    3.079031e+00
  4.798580e+00    3.080483e+00
  4.909709e+00    3.105454e+00
  5.020838e+00    3.046484e+00
  5.131967e+00    3.133387e+00
  5.243096e+00    3.020373e+00
  5.354225e+00    3.096714e+00
  5.465354e+00    3.005162e+00
  5.576483e+00    2.980805e+00
  5.687612e+00    3.070554e+00
  5.798741e+00    2.889402e+00
  5.909870e+00    2.920076e+00
  6.020999e+00    2.916258e+00
  6.132128e+00    3.050727e+00
  6.243257e+00    2.993667e+00
  6.354386e+00    3.038218e+00
  6.465515e+00    3.016078e+00
  6.576644e+00    2.994380e+00
  6.687773e+00    3.012300e+00
  6.798902e+00    2.950658e+00
  6.910031e+00    2.914035e+00
  7.021160e+00    2.904544e+00
  7.132289e+00    2.852988e+00
  7.243418e+00    2.972994e+00
  7.354547e+00    2.970146e+00
  7.465676e+00    2.940004e+00
  7.576805e+00    2.950523e+00
  7.687934e+00    2.934101e+00
  7.799063e+00    2.911120e+00
  7.910192e+00    2.902725e+00
  8.021321e+00    2.903755e+00
  8.132450e+00    2.846870e+00
  8.243579e+00    2.869965e+00
  8.354708e+00    2.790553e+00
  8.465837e+00    2.896585e+00
  8.576966e+00    2.835089e+00
  8.688095e+00    2.861382e+00
  8.799224e+00    2.815580e+00
  8.910353e+00    2.743872e+00
  9.021482e+00    2.732135e+00
  9.132611e+00    2.749164e+00
  9.243740e+00    2.709091e+00
  9.354869e+00    2.772021e+00
  9.465998e+00    2.700012e+00
  9.577127e+00    2.698980e+00
  9.688256e+00    2.691098e+00
  9.799385e+00    2.644365e+00
  9.910514e+00    2.601551e+00
  1.002164e+01    2.609030e+00
  1.013277e+01    2.564277e+00
  1.024390e+01    2.555573e+00
  1.035503e+01    2.543948e+00
  1.046616e+01    2.554795e+00
  1.057729e+01    2.603128e+00
  1.068842e+01    2.521472e+00
  1.079955e+01    2.562228e+00
  1.091068e+01    2.448434e+00
  1.102180e+01    2.458249e+00
  1.113293e+01    2.416419e+00
  1.124406e+01    2.416863e+00
  1.135519e+01    2.380667e+00
  1.146632e+01    2.396645e+00
  1.157745e+01    2.363496e+00
  1.168858e+01    2.365918e+00
  1.179971e+01    2.347710e+00
  1.191084e+01    2.267837e+00
  1.202197e+01    2.288308e+00
  1.213309e+01    2.280199e+00
  1.224422e+01    2.258485e+00
  1.235535e+01    2.258901e+00
  1.246648e+01    2.303393e+00
  1.257761e+01    2.372190e+00
  1.268874e+01    2.399515e+00
  1.279987e+01    2.590738e+00
  1.291100e+01    3.228672e+00
  1.302213e+01    5.975967e+00
  1.313326e+01    1.442832e+01
  1.324438e+01    1.238235e+01
  1.335551e+01    4.401959e+00
  1.346664e+01    2.914943e+00
  1.357777e+01    2.420501e+00
  1.368890e+01    2.230653e+00
  1.380003e+01    2.121005e+00
  1.391116e+01    2.035171e+00
  1.402229e+01    2.024198e+00
  1.413342e+01    2.016228e+00
  1.424455e+01    1.972304e+00
  1.435568e+01    1.943173e+00
  1.446680e+01    1.879681e+00
  1.457793e+01    1.891104e+00
  1.468906e+01    1.869041e+00
  1.480019e+01    1.877172e+00
  1.491132e+01    1.920677e+00
  1.502245e+01    2.160998e+00
  1.513358e+01    3.396895e+00
  1.524471e+01    5.663188e+00
  1.535584e+01    3.925417e+00
  1.546697e+01    2.200973e+00
  1.557809e+01    1.840594e+00
  1.568922e+01    1.733765e+00
  1.580035e+01    1.668417e+00
  1.591148e+01    1.606955e+00
  1.602261e+01    1.597371e+00
  1.613374e+01    1.588850e+00
  1.624487e+01    1.522984e+00
  1.635600e+01    1.512367e+00
  1.646713e+01    1.496240e+00
  1.657826e+01    1.455937e+00
  1.668938e+01    1.484018e+00
  1.680051e+01    1.467113e+00
  1.691164e+01    1.436309e+00
  1.702277e+01    1.425303e+00
  1.713390e+01    1.418556e+00
  1.724503e+01    1.351306e+00
  1.735616e+01    1.375516e+00
  1.746729e+01    1.330321e+00
  1.757842e+01    1.343200e+00
  1.768955e+01    1.340369e+00
  1.780067e+01    1.329273e+00
  1.791180e+01    1.283651e+00
  1.802293e+01    1.270279e+00
  1.813406e+01    1.294401e+00
  1.824519e+01    1.247131e+00
  1.835632e+01    1.255202e+00
  1.846745e+01    1.246815e+00
  1.857858e+01    1.202433e+00
  1.868971e+01    1.225506e+00
  1.880084e+01    1.225111e+00
  1.891196e+01    1.211594e+00
  1.902309e+01    1.188986e+00
  1.913422e+01    1.169184e+00
  1.924535e+01    1.158361e+00
  1.935648e+01    1.157549e+00
  1.946761e+01    1.153343e+00
  1.957874e+01    1.139099e+00
  1.968987e+01    1.111377e+00
  1.980100e+01    1.110570e+00
  1.991213e+01    1.083720e+00
  2.002325e+01    1.123925e+00
  2.013438e+01    1.094626e+00
  2.024551e+01    1.062102e+00
  2.035664e+01    1.115526e+00
  2.046777e+01    1.077187e+00
  2.057890e+01    1.064748e+00
  2.069003e+01    1.077652e+00
  2.080116e+01    1.059016e+00
  2.091229e+01    1.067746e+00
  2.102342e+01    1.072080e+00
  2.113455e+01    1.073933e+00
  2.124567e+01    1.098494e+00
  2.135680e+01    1.136952e+00
  2.146793e+01    1.212701e+00
  2.157906e+01    1.462132e+00
  2.169019e+01    2.226209e+00
  2.180132e+01    5.291233e+00
  2.191245e+01    9.561116e+00
  2.202358e+01    4.138557e+00
  2.213471e+01    1.877911e+00
  2.224584e+01    1.313047e+00
  2.235696e+01    1.118477e+00
  2.246809e+01    1.025363e+00
  2.257922e+01    9.689952e-01
  2.269035e+01    9.496905e-01
  2.280148e+01    9.023012e-01
  2.291261e+01    8.811265e-01
  2.302374e+01    8.746753e-01
  2.313487e+01    8.623694e-01
  2.324600e+01    8.544582e-01
  2.335713e+01    8.440748e-01
  2.346825e+01    8.382512e-01
  2.357938e+01    8.398541e-01
  2.369051e+01    8.045838e-01
  2.380164e+01    7.993625e-01
  2.391277e+01    7.912544e-01
  2.402390e+01    7.754871e-01
  2.413503e+01    7.796519e-01
  2.424616e+01    7.662807e-01
  2.435729e+01    7.577119e-01
  2.446842e+01    8.218572e-01
  2.457954e+01    7.862540e-01
  2.469067e+01    7.696815e-01
  2.480180e+01    7.719228e-01
  2.491293e+01    7.882068e-01
  2.502406e+01    7.857274e-01
  2.513519e+01    7.893922e-01
  2.524632e+01    8.409265e-01
  2.535745e+01    8.874879e-01
  2.546858e+01    9.160418e-01
  2.557971e+01    1.076357e+00
  2.569083e+01    1.388022e+00
  2.580196e+01    2.475242e+00
  2.591309e+01    6.126474e+00
  2.602422e+01    6.640431e+00
  2.613535e+01    2.459290e+00
  2.624648e+01    1.352377e+00
  2.635761e+01    1.074719e+00
  2.646874e+01    9.555724e-01
  2.657987e+01    9.091086e-01
  2.669100e+01    8.568398e-01
  2.680212e+01    8.881739e-01
  2.691325e+01    9.114459e-01
  2.702438e+01    1.044356e+00
  2.713551e+01    1.528117e+00
  2.724664e+01    2.276896e+00
  2.735777e+01    1.364629e+00
  2.746890e+01    9.516950e-01
  2.758003e+01    8.559403e-01
  2.769116e+01    8.156316e-01
  2.780229e+01    7.977303e-01
  2.791342e+01    7.898043e-01
  2.802454e+01    7.708613e-01
  2.813567e+01    7.588820e-01
  2.824680e+01    7.694864e-01
  2.835793e+01    7.553882e-01
  2.846906e+01    7.417119e-01
  2.858019e+01    7.483971e-01
  2.869132e+01    7.270288e-01
  2.880245e+01    7.347837e-01
  2.891358e+01    7.283903e-01
  2.902471e+01    7.222998e-01
  2.913583e+01    7.353864e-01
  2.924696e+01    7.399066e-01
  2.935809e+01    7.318798e-01
  2.946922e+01    6.984480e-01
  2.958035e+01    7.195442e-01
  2.969148e+01    7.178398e-01
  2.980261e+01    7.222391e-01
  2.991374e+01    7.095866e-01
  3.002487e+01    7.133692e-01
  3.013600e+01    7.063529e-01
  3.024712e+01    7.079305e-01
  3.035825e+01    7.104408e-01
  3.046938e+01    6.864092e-01
  3.058051e+01    7.037371e-01
  3.069164e+01    7.048829e-01
  3.080277e+01    7.051537e-01
  3.091390e+01    7.202355e-01
  3.102503e+01    6.925254e-01
  3.113616e+01    7.183562e-01
  3.124729e+01    7.127582e-01
  3.135841e+01    7.170502e-01
  3.146954e+01    7.727447e-01
  3.158067e+01    8.086868e-01
  3.169180e+01    8.928419e-01
  3.180293e+01    1.336311e+00
  3.191406e+01    2.228385e+00
  3.202519e+01    1.533257e+00
  3.213632e+01    9.395035e-01
  3.224745e+01    8.304726e-01
  3.235858e+01    7.631446e-01
  3.246970e+01    7.370104e-01
  3.254908e+01    7.441795e-01

File: 2024-07-27_002_Ru-CGO-ex_Activtation_ramp_000002_data_000115.dat
# == pyFAI calibration ==
# Distance Sample to Detector: 0.4 m
# PONI: 9.750e-02, 1.135e-01 m
# Rotations: -0.000175 0.000000 -0.000000 rad
#
# == Fit2d calibration ==
# Distance Sample-beamCenter: 400.000 mm
# Center: x=1514.000, y=1300.000 pix
# Tilt: 0.010 deg  TiltPlanRot: 0.010 deg
#
# Detector Detector	 Spline= None	 PixelSize= 7.500e-05, 7.500e-05 m
#    Detector has a mask: False
#    Detector has a dark current: False
#    detector has a flat field: False
#
# Wavelength: 6.888e-11 m
# Mask applied: user provided
# Dark current applied: False
# Flat field applied: False
# Polarization factor: 0.99
# Normalization factor: 1.0
# --> /home/myspot/data/2024_07_Rosario/Ru-CGO-ex/2024-07-27_002_Ru-CGO-ex_Activtation_ramp_000002_data_000115.dat
#       q_nm^-1             I
  2.003187e-02    9.939597e-02
  1.311609e-01    9.019940e-02
  2.422899e-01    5.549468e-02
  3.534189e-01    5.398552e-02
  4.645479e-01    4.387606e-02
  5.756770e-01    3.043930e-02
  6.868060e-01    3.794387e-02
  7.979350e-01    1.487323e-01
  9.090640e-01    5.467679e-01
  1.020193e+00    1.126848e+00
  1.131322e+00    1.382733e+00
  1.242451e+00    2.122425e+00
  1.353580e+00    2.475508e+00
  1.464709e+00    2.650412e+00
  1.575838e+00    2.852450e+00
  1.686967e+00    2.749426e+00
  1.798096e+00    2.777990e+00
  1.909225e+00    2.587823e+00
  2.020354e+00    2.619754e+00
  2.131483e+00    2.717398e+00
  2.242612e+00    2.657434e+00
  2.353741e+00    2.725313e+00
  2.464870e+00    2.775330e+00
  2.575999e+00    2.717482e+00
  2.687128e+00    2.847914e+00
  2.798257e+00    2.722142e+00
  2.909386e+00    2.748942e+00
  3.020515e+00    2.868203e+00
  3.131644e+00    2.877418e+00
  3.242773e+00    2.886949e+00
  3.353902e+00    2.835284e+00
  3.465031e+00    2.855215e+00
  3.576160e+00    2.856597e+00
  3.687289e+00    2.824422e+00
  3.798418e+00    2.948014e+00
  3.909547e+00    2.974484e+00
  4.020676e+00    3.012388e+00
  4.131806e+00    2.905722e+00
  4.242935e+00    3.010189e+00
  4.354064e+00    2.962751e+00
  4.465193e+00    3.051055e+00
  4.576322e+00    3.091527e+00
  4.687451e+00    3.098625e+00
  4.798580e+00    3.074436e+00
  4.909709e+00    3.032252e+00
  5.020838e+00    3.042476e+00
  5.131967e+00    3.172172e+00
  5.243096e+00    3.012711e+00
  5.354225e+00    3.043383e+00
  5.465354e+00    3.035707e+00
  5.576483e+00    3.039606e+00
  5.687612e+00    3.042479e+00
  5.798741e+00    3.053925e+00
  5.909870e+00    2.903789e+00
  6.020999e+00    2.953000e+00
  6.132128e+00    3.045545e+00
  6.243257e+00    2.985363e+00
  6.354386e+00    3.039074e+00
  6.465515e+00    3.065821e+00
  6.576644e+00    3.046868e+00
  6.687773e+00    2.982079e+00
  6.798902e+00    2.970405e+00
  6.910031e+00    2.896945e+00
  7.021160e+00    2.937093e+00
  7.132289e+00    2.915319e+00
  7.243418e+00    2.992361e+00
  7.354547e+00    2.942822e+00
  7.465676e+00    2.908526e+00
  7.576805e+00    2.864195e+00
  7.687934e+00    2.863035e+00
  7.799063e+00    2.868253e+00
  7.910192e+00    2.843252e+00
  8.021321e+00    2.868431e+00
  8.132450e+00    2.880888e+00
  8.243579e+00    2.927032e+00
  8.354708e+00    2.887527e+00
  8.465837e+00    2.849105e+00
  8.576966e+00    2.887722e+00
  8.688095e+00    2.816670e+00
  8.799224e+00    2.814545e+00
  8.910353e+00    2.838311e+00
  9.021482e+00    2.746727e+00
  9.132611e+00    2.793939e+00
  9.243740e+00    2.727587e+00
  9.354869e+00    2.701866e+00
  9.465998e+00    2.748600e+00
  9.577127e+00    2.678459e+00
  9.688256e+00    2.650820e+00
  9.799385e+00    2.626042e+00
  9.910514e+00    2.668135e+00
  1.002164e+01    2.646269e+00
  1.013277e+01    2.567501e+00
  1.024390e+01    2.590526e+00
  1.035503e+01    2.612730e+00
  1.046616e+01    2.533742e+00
  1.057729e+01    2.492465e+00
  1.068842e+01    2.533270e+00
  1.079955e+01    2.479158e+00
  1.091068e+01    2.478440e+00
  1.102180e+01    2.457734e+00
  1.113293e+01    2.437336e+00
  1.124406e+01    2.404934e+00
  1.135519e+01    2.450659e+00
  1.146632e+01    2.385821e+00
  1.157745e+01    2.318824e+00
  1.168858e+01    2.308681e+00
  1.179971e+01    2.288472e+00
  1.191084e+01    2.327822e+00
  1.202197e+01    2.291695e+00
  1.213309e+01    2.231279e+00
  1.224422e+01    2.298448e+00
  1.235535e+01    2.303122e+00
  1.246648e+01    2.345308e+00
  1.257761e+01    2.328212e+00
  1.268874e+01    2.412502e+00
  1.279987e+01    2.584608e+00
  1.291100e+01    3.248939e+00
  1.302213e+01    6.140618e+00
  1.313326e+01    1.469776e+01
  1.324438e+01    1.223572e+01
  1.335551e+01    4.415579e+00
  1.346664e+01    2.842055e+00
  1.357777e+01    2.454134e+00
  1.368890e+01    2.203694e+00
  1.380003e+01    2.123625e+00
  1.391116e+01    2.034509e+00
  1.402229e+01    1.991213e+00
  1.413342e+01    2.014424e+00
  1.424455e+01    1.941302e+00
  1.435568e+01    1.917393e+00
  1.446680e+01    1.914181e+00
  1.457793e+01    1.881547e+00
  1.468906e+01    1.871545e+00
  1.480019e+01    1.899486e+00
  1.491132e+01    1.923289e+00
  1.502245e+01    2.182632e+00
  1.513358e+01    3.398122e+00
  1.524471e+01    5.719383e+00
  1.535584e+01    3.871079e+00
  1.546697e+01    2.208466e+00
  1.557809e+01    1.846948e+00
  1.568922e+01    1.727596e+00
  1.580035e+01    1.616807e+00
  1.591148e+01    1.603506e+00
  1.602261e+01    1.557520e+00
  1.613374e+01    1.566963e+00
  1.624487e+01    1.578511e+00
  1.635600e+01    1.524545e+00
  1.646713e+01    1.500350e+00
  1.657826e+01    1.473697e+00
  1.668938e+01    1.461095e+00
  1.680051e+01    1.450863e+00
  1.691164e+01    1.414793e+00
  1.702277e+01    1.414244e+00
  1.713390e+01    1.412908e+00
  1.724503e+01    1.385257e+00
  1.735616e+01    1.373269e+00
  1.746729e+01    1.356576e+00
  1.757842e+01    1.326232e+00
  1.768955e+01    1.315670e+00
  1.780067e+01    1.309808e+00
  1.791180e+01    1.276528e+00
  1.802293e+01    1.268461e+00
  1.813406e+01    1.263014e+00
  1.824519e+01    1.280893e+00
  1.835632e+01    1.237129e+00
  1.846745e+01    1.202897e+00
  1.857858e+01    1.216942e+00
  1.868971e+01    1.197102e+00
  1.880084e+01    1.188053e+00
  1.891196e+01    1.182370e+00
  1.902309e+01    1.185991e+00
  1.913422e+01    1.152227e+00
  1.924535e+01    1.141016e+00
  1.935648e+01    1.181942e+00
  1.946761e+01    1.163661e+00
  1.957874e+01    1.119043e+00
  1.968987e+01    1.150414e+00
  1.980100e+01    1.116038e+00
  1.991213e+01    1.121826e+00
  2.002325e+01    1.109761e+00
  2.013438e+01    1.079840e+00
  2.024551e+01    1.090369e+00
  2.035664e+01    1.108508e+00
  2.046777e+01    1.064664e+00
  2.057890e+01    1.070349e+00
  2.069003e+01    1.056811e+00
  2.080116e+01    1.069167e+00
  2.091229e+01    1.070197e+00
  2.102342e+01    1.063400e+00
  2.113455e+01    1.060357e+00
  2.124567e+01    1.101673e+00
  2.135680e+01    1.142225e+00
  2.146793e+01    1.239579e+00
  2.157906e+01    1.427011e+00
  2.169019e+01    2.244154e+00
  2.180132e+01    5.465122e+00
  2.191245e+01    9.543312e+00
  2.202358e+01    4.043424e+00
  2.213471e+01    1.849030e+00
  2.224584e+01    1.298516e+00
  2.235696e+01    1.117371e+00
  2.246809e+01    1.057872e+00
  2.257922e+01    9.661707e-01
  2.269035e+01    9.374391e-01
  2.280148e+01    9.385172e-01
  2.291261e+01    9.083270e-01
  2.302374e+01    9.107167e-01
  2.313487e+01    8.747364e-01
  2.324600e+01    8.606693e-01
  2.335713e+01    8.505985e-01
  2.346825e+01    8.426666e-01
  2.357938e+01    8.406982e-01
  2.369051e+01    8.104286e-01
  2.380164e+01    8.037059e-01
  2.391277e+01    7.945951e-01
  2.402390e+01    7.885738e-01
  2.413503e+01    7.786576e-01
  2.424616e+01    7.550285e-01
  2.435729e+01    7.864813e-01
  2.446842e+01    7.887219e-01
  2.457954e+01    7.741253e-01
  2.469067e+01    7.763222e-01
  2.480180e+01    7.720889e-01
  2.491293e+01    7.751830e-01
  2.502406e+01    7.975150e-01
  2.513519e+01    7.893866e-01
  2.524632e+01    8.346854e-01
  2.535745e+01    8.730691e-01
  2.546858e+01    9.486697e-01
  2.557971e+01    1.056514e+00
  2.569083e+01    1.371348e+00
  2.580196e+01    2.534083e+00
  2.591309e+01    6.231972e+00
  2.602422e+01    6.438996e+00
  2.613535e+01    2.384131e+00
  2.624648e+01    1.363391e+00
  2.635761e+01    1.067523e+00
  2.646874e+01    9.542153e-01
  2.657987e+01    8.838328e-01
  2.669100e+01    8.975716e-01
  2.680212e+01    8.922252e-01
  2.691325e+01    9.099637e-01
  2.702438e+01    1.042136e+00
  2.713551e+01    1.585196e+00
  2.724664e+01    2.291921e+00
  2.735777e+01    1.286158e+00
  2.746890e+01    9.584006e-01
  2.758003e+01    8.470302e-01
  2.769116e+01    8.409130e-01
  2.780229e+01    8.099048e-01
  2.791342e+01    7.837605e-01
  2.802454e+01    7.812591e-01
  2.813567e+01    7.851941e-01
  2.824680e+01    7.628468e-01
  2.835793e+01    7.486635e-01
  2.846906e+01    7.626914e-01
  2.858019e+01    7.440217e-01
  2.869132e+01    7.448441e-01
  2.880245e+01    7.289101e-01
  2.891358e+01    7.341938e-01
  2.902471e+01    7.188691e-01
  2.913583e+01    7.438089e-01
  2.924696e+01    7.368925e-01
  2.935809e+01    7.520682e-01
  2.946922e+01    7.269047e-01
  2.958035e+01    7.059401e-01
  2.969148e+01    6.949168e-01
  2.980261e+01    7.040830e-01
  2.991374e+01    7.054155e-01
  3.002487e+01    7.217805e-01
  3.013600e+01    7.239514e-01
  3.024712e+01    7.066673e-01
  3.035825e+01    7.074983e-01
  3.046938e+01    7.117728e-01
  3.058051e+01    7.077189e-01
  3.069164e+01    7.162607e-01
  3.080277e+01    6.937845e-01
  3.091390e+01    6.921279e-01
  3.102503e+01    7.237778e-01
  3.113616e+01    7.241490e-01
  3.124729e+01    7.300242e-01
  3.135841e+01    7.154242e-01
  3.146954e+01    7.514686e-01
  3.158067e+01    7.711229e-01
  3.169180e+01    9.472779e-01
  3.180293e+01    1.355934e+00
  3.191406e+01    2.290314e+00
  3.202519e+01    1.446062e+00
  3.213632e+01    9.343141e-01
  3.224745e+01    7.624706e-01
  3.235858e+01    7.324261e-01
  3.246970e+01    7.215940e-01
  3.254908e+01    6.958395e-01