Folder: myspot_2024_07/XRD/Activation ramp (part 21)

File: 2024-07-27_002_Ru-CGO-ex_Activtation_ramp_000002_data_000093.dat
# == pyFAI calibration ==
# Distance Sample to Detector: 0.4 m
# PONI: 9.750e-02, 1.135e-01 m
# Rotations: -0.000175 0.000000 -0.000000 rad
#
# == Fit2d calibration ==
# Distance Sample-beamCenter: 400.000 mm
# Center: x=1514.000, y=1300.000 pix
# Tilt: 0.010 deg  TiltPlanRot: 0.010 deg
#
# Detector Detector	 Spline= None	 PixelSize= 7.500e-05, 7.500e-05 m
#    Detector has a mask: False
#    Detector has a dark current: False
#    detector has a flat field: False
#
# Wavelength: 6.888e-11 m
# Mask applied: user provided
# Dark current applied: False
# Flat field applied: False
# Polarization factor: 0.99
# Normalization factor: 1.0
# --> /home/myspot/data/2024_07_Rosario/Ru-CGO-ex/2024-07-27_002_Ru-CGO-ex_Activtation_ramp_000002_data_000093.dat
#       q_nm^-1             I
  2.003187e-02    0.000000e+00
  1.311609e-01    4.707323e-02
  2.422899e-01    5.799422e-02
  3.534189e-01    3.470326e-02
  4.645479e-01    2.596617e-02
  5.756770e-01    3.267522e-02
  6.868060e-01    3.882701e-02
  7.979350e-01    1.270446e-01
  9.090640e-01    5.786728e-01
  1.020193e+00    1.086007e+00
  1.131322e+00    1.565760e+00
  1.242451e+00    2.125667e+00
  1.353580e+00    2.629880e+00
  1.464709e+00    2.764805e+00
  1.575838e+00    2.952351e+00
  1.686967e+00    2.857051e+00
  1.798096e+00    2.935715e+00
  1.909225e+00    2.783941e+00
  2.020354e+00    2.769135e+00
  2.131483e+00    2.767084e+00
  2.242612e+00    2.707084e+00
  2.353741e+00    2.756179e+00
  2.464870e+00    2.743064e+00
  2.575999e+00    2.790958e+00
  2.687128e+00    2.742208e+00
  2.798257e+00    2.725228e+00
  2.909386e+00    2.834844e+00
  3.020515e+00    2.879804e+00
  3.131644e+00    2.867981e+00
  3.242773e+00    2.914044e+00
  3.353902e+00    2.836405e+00
  3.465031e+00    2.941987e+00
  3.576160e+00    2.976851e+00
  3.687289e+00    2.937301e+00
  3.798418e+00    2.952954e+00
  3.909547e+00    2.988476e+00
  4.020676e+00    2.991899e+00
  4.131806e+00    3.056594e+00
  4.242935e+00    3.000928e+00
  4.354064e+00    3.058326e+00
  4.465193e+00    3.009032e+00
  4.576322e+00    3.063343e+00
  4.687451e+00    3.062157e+00
  4.798580e+00    3.084563e+00
  4.909709e+00    3.092432e+00
  5.020838e+00    3.117965e+00
  5.131967e+00    3.175610e+00
  5.243096e+00    3.076298e+00
  5.354225e+00    3.010656e+00
  5.465354e+00    3.022838e+00
  5.576483e+00    3.042917e+00
  5.687612e+00    2.968011e+00
  5.798741e+00    3.019701e+00
  5.909870e+00    3.020737e+00
  6.020999e+00    2.947125e+00
  6.132128e+00    3.092459e+00
  6.243257e+00    2.937015e+00
  6.354386e+00    2.997788e+00
  6.465515e+00    3.033567e+00
  6.576644e+00    2.984526e+00
  6.687773e+00    3.028986e+00
  6.798902e+00    2.915612e+00
  6.910031e+00    2.977539e+00
  7.021160e+00    2.945412e+00
  7.132289e+00    2.990191e+00
  7.243418e+00    2.926763e+00
  7.354547e+00    2.890544e+00
  7.465676e+00    2.909305e+00
  7.576805e+00    2.930232e+00
  7.687934e+00    2.959635e+00
  7.799063e+00    2.877671e+00
  7.910192e+00    2.878809e+00
  8.021321e+00    2.837948e+00
  8.132450e+00    2.899976e+00
  8.243579e+00    2.909852e+00
  8.354708e+00    2.848292e+00
  8.465837e+00    2.917593e+00
  8.576966e+00    2.857415e+00
  8.688095e+00    2.795913e+00
  8.799224e+00    2.832560e+00
  8.910353e+00    2.799998e+00
  9.021482e+00    2.742591e+00
  9.132611e+00    2.675020e+00
  9.243740e+00    2.800657e+00
  9.354869e+00    2.705082e+00
  9.465998e+00    2.719842e+00
  9.577127e+00    2.713507e+00
  9.688256e+00    2.648619e+00
  9.799385e+00    2.697796e+00
  9.910514e+00    2.658202e+00
  1.002164e+01    2.614739e+00
  1.013277e+01    2.587213e+00
  1.024390e+01    2.551840e+00
  1.035503e+01    2.585678e+00
  1.046616e+01    2.499002e+00
  1.057729e+01    2.502955e+00
  1.068842e+01    2.512570e+00
  1.079955e+01    2.441306e+00
  1.091068e+01    2.496159e+00
  1.102180e+01    2.465559e+00
  1.113293e+01    2.415426e+00
  1.124406e+01    2.420553e+00
  1.135519e+01    2.322525e+00
  1.146632e+01    2.390489e+00
  1.157745e+01    2.338394e+00
  1.168858e+01    2.337687e+00
  1.179971e+01    2.343304e+00
  1.191084e+01    2.296498e+00
  1.202197e+01    2.285344e+00
  1.213309e+01    2.278783e+00
  1.224422e+01    2.261560e+00
  1.235535e+01    2.280093e+00
  1.246648e+01    2.297860e+00
  1.257761e+01    2.342256e+00
  1.268874e+01    2.406591e+00
  1.279987e+01    2.595893e+00
  1.291100e+01    3.184199e+00
  1.302213e+01    6.028586e+00
  1.313326e+01    1.471460e+01
  1.324438e+01    1.324241e+01
  1.335551e+01    4.719413e+00
  1.346664e+01    2.969258e+00
  1.357777e+01    2.410110e+00
  1.368890e+01    2.262485e+00
  1.380003e+01    2.161085e+00
  1.391116e+01    2.045224e+00
  1.402229e+01    2.043507e+00
  1.413342e+01    1.991206e+00
  1.424455e+01    1.960814e+00
  1.435568e+01    1.919431e+00
  1.446680e+01    1.932778e+00
  1.457793e+01    1.879217e+00
  1.468906e+01    1.858743e+00
  1.480019e+01    1.900422e+00
  1.491132e+01    1.973856e+00
  1.502245e+01    2.144202e+00
  1.513358e+01    3.348965e+00
  1.524471e+01    5.760979e+00
  1.535584e+01    4.133073e+00
  1.546697e+01    2.268390e+00
  1.557809e+01    1.840670e+00
  1.568922e+01    1.743962e+00
  1.580035e+01    1.678741e+00
  1.591148e+01    1.632211e+00
  1.602261e+01    1.579229e+00
  1.613374e+01    1.571829e+00
  1.624487e+01    1.546371e+00
  1.635600e+01    1.529595e+00
  1.646713e+01    1.507293e+00
  1.657826e+01    1.476250e+00
  1.668938e+01    1.457181e+00
  1.680051e+01    1.447624e+00
  1.691164e+01    1.429176e+00
  1.702277e+01    1.439150e+00
  1.713390e+01    1.384172e+00
  1.724503e+01    1.398682e+00
  1.735616e+01    1.390027e+00
  1.746729e+01    1.344169e+00
  1.757842e+01    1.342891e+00
  1.768955e+01    1.321806e+00
  1.780067e+01    1.291867e+00
  1.791180e+01    1.299501e+00
  1.802293e+01    1.280169e+00
  1.813406e+01    1.282229e+00
  1.824519e+01    1.256059e+00
  1.835632e+01    1.247340e+00
  1.846745e+01    1.250059e+00
  1.857858e+01    1.207141e+00
  1.868971e+01    1.229468e+00
  1.880084e+01    1.181694e+00
  1.891196e+01    1.216657e+00
  1.902309e+01    1.175736e+00
  1.913422e+01    1.157017e+00
  1.924535e+01    1.179795e+00
  1.935648e+01    1.147631e+00
  1.946761e+01    1.115530e+00
  1.957874e+01    1.121076e+00
  1.968987e+01    1.137078e+00
  1.980100e+01    1.107871e+00
  1.991213e+01    1.074347e+00
  2.002325e+01    1.105046e+00
  2.013438e+01    1.099220e+00
  2.024551e+01    1.071919e+00
  2.035664e+01    1.063354e+00
  2.046777e+01    1.045127e+00
  2.057890e+01    1.084506e+00
  2.069003e+01    1.059653e+00
  2.080116e+01    1.050850e+00
  2.091229e+01    1.053648e+00
  2.102342e+01    1.068748e+00
  2.113455e+01    1.076242e+00
  2.124567e+01    1.113936e+00
  2.135680e+01    1.131989e+00
  2.146793e+01    1.215594e+00
  2.157906e+01    1.437166e+00
  2.169019e+01    2.195452e+00
  2.180132e+01    5.234683e+00
  2.191245e+01    9.930302e+00
  2.202358e+01    4.471811e+00
  2.213471e+01    1.961442e+00
  2.224584e+01    1.368259e+00
  2.235696e+01    1.164584e+00
  2.246809e+01    1.060122e+00
  2.257922e+01    9.900280e-01
  2.269035e+01    9.520663e-01
  2.280148e+01    9.308671e-01
  2.291261e+01    9.145098e-01
  2.302374e+01    8.932462e-01
  2.313487e+01    8.649457e-01
  2.324600e+01    8.615188e-01
  2.335713e+01    8.661991e-01
  2.346825e+01    8.397183e-01
  2.357938e+01    8.224176e-01
  2.369051e+01    8.232139e-01
  2.380164e+01    8.204358e-01
  2.391277e+01    7.875031e-01
  2.402390e+01    7.929149e-01
  2.413503e+01    7.739795e-01
  2.424616e+01    7.635077e-01
  2.435729e+01    7.706569e-01
  2.446842e+01    7.858923e-01
  2.457954e+01    7.741479e-01
  2.469067e+01    7.749096e-01
  2.480180e+01    7.921820e-01
  2.491293e+01    7.832381e-01
  2.502406e+01    8.012342e-01
  2.513519e+01    8.091956e-01
  2.524632e+01    8.573196e-01
  2.535745e+01    8.773364e-01
  2.546858e+01    9.379992e-01
  2.557971e+01    1.066201e+00
  2.569083e+01    1.369355e+00
  2.580196e+01    2.417927e+00
  2.591309e+01    6.048513e+00
  2.602422e+01    7.137277e+00
  2.613535e+01    2.674107e+00
  2.624648e+01    1.434659e+00
  2.635761e+01    1.075364e+00
  2.646874e+01    9.484693e-01
  2.657987e+01    9.161134e-01
  2.669100e+01    8.960645e-01
  2.680212e+01    8.895810e-01
  2.691325e+01    9.381471e-01
  2.702438e+01    1.045552e+00
  2.713551e+01    1.526488e+00
  2.724664e+01    2.359955e+00
  2.735777e+01    1.413351e+00
  2.746890e+01    1.001253e+00
  2.758003e+01    8.751930e-01
  2.769116e+01    8.320541e-01
  2.780229e+01    8.136026e-01
  2.791342e+01    7.684891e-01
  2.802454e+01    7.911875e-01
  2.813567e+01    7.686269e-01
  2.824680e+01    7.808403e-01
  2.835793e+01    7.571886e-01
  2.846906e+01    7.235262e-01
  2.858019e+01    7.655318e-01
  2.869132e+01    7.437851e-01
  2.880245e+01    7.469214e-01
  2.891358e+01    7.233638e-01
  2.902471e+01    7.412826e-01
  2.913583e+01    7.339265e-01
  2.924696e+01    7.216709e-01
  2.935809e+01    7.149212e-01
  2.946922e+01    7.106899e-01
  2.958035e+01    7.188135e-01
  2.969148e+01    7.035624e-01
  2.980261e+01    7.118936e-01
  2.991374e+01    7.172614e-01
  3.002487e+01    7.478454e-01
  3.013600e+01    6.988454e-01
  3.024712e+01    7.013587e-01
  3.035825e+01    7.126785e-01
  3.046938e+01    7.069237e-01
  3.058051e+01    6.932601e-01
  3.069164e+01    7.160136e-01
  3.080277e+01    6.957841e-01
  3.091390e+01    7.040757e-01
  3.102503e+01    7.060006e-01
  3.113616e+01    7.385980e-01
  3.124729e+01    7.222438e-01
  3.135841e+01    7.195997e-01
  3.146954e+01    7.583345e-01
  3.158067e+01    7.917290e-01
  3.169180e+01    9.165859e-01
  3.180293e+01    1.308363e+00
  3.191406e+01    2.276310e+00
  3.202519e+01    1.613018e+00
  3.213632e+01    9.642764e-01
  3.224745e+01    8.065146e-01
  3.235858e+01    7.393542e-01
  3.246970e+01    7.328274e-01
  3.254908e+01    7.226799e-01

File: 2024-07-27_002_Ru-CGO-ex_Activtation_ramp_000002_data_000096.dat
# == pyFAI calibration ==
# Distance Sample to Detector: 0.4 m
# PONI: 9.750e-02, 1.135e-01 m
# Rotations: -0.000175 0.000000 -0.000000 rad
#
# == Fit2d calibration ==
# Distance Sample-beamCenter: 400.000 mm
# Center: x=1514.000, y=1300.000 pix
# Tilt: 0.010 deg  TiltPlanRot: 0.010 deg
#
# Detector Detector	 Spline= None	 PixelSize= 7.500e-05, 7.500e-05 m
#    Detector has a mask: False
#    Detector has a dark current: False
#    detector has a flat field: False
#
# Wavelength: 6.888e-11 m
# Mask applied: user provided
# Dark current applied: False
# Flat field applied: False
# Polarization factor: 0.99
# Normalization factor: 1.0
# --> /home/myspot/data/2024_07_Rosario/Ru-CGO-ex/2024-07-27_002_Ru-CGO-ex_Activtation_ramp_000002_data_000096.dat
#       q_nm^-1             I
  2.003187e-02    0.000000e+00
  1.311609e-01    2.939202e-02
  2.422899e-01    4.192580e-02
  3.534189e-01    3.763426e-02
  4.645479e-01    4.300979e-02
  5.756770e-01    3.080259e-02
  6.868060e-01    2.616710e-02
  7.979350e-01    1.277231e-01
  9.090640e-01    5.822216e-01
  1.020193e+00    1.052544e+00
  1.131322e+00    1.418103e+00
  1.242451e+00    2.143082e+00
  1.353580e+00    2.552666e+00
  1.464709e+00    2.763943e+00
  1.575838e+00    2.953494e+00
  1.686967e+00    2.941949e+00
  1.798096e+00    2.781665e+00
  1.909225e+00    2.789896e+00
  2.020354e+00    2.756779e+00
  2.131483e+00    2.736296e+00
  2.242612e+00    2.760089e+00
  2.353741e+00    2.725229e+00
  2.464870e+00    2.625726e+00
  2.575999e+00    2.784220e+00
  2.687128e+00    2.817037e+00
  2.798257e+00    2.766016e+00
  2.909386e+00    2.798485e+00
  3.020515e+00    2.864594e+00
  3.131644e+00    2.842084e+00
  3.242773e+00    2.870494e+00
  3.353902e+00    2.952144e+00
  3.465031e+00    2.886749e+00
  3.576160e+00    2.883278e+00
  3.687289e+00    3.009629e+00
  3.798418e+00    2.980019e+00
  3.909547e+00    2.968836e+00
  4.020676e+00    3.039605e+00
  4.131806e+00    2.961937e+00
  4.242935e+00    2.960023e+00
  4.354064e+00    2.978513e+00
  4.465193e+00    3.016451e+00
  4.576322e+00    2.989152e+00
  4.687451e+00    3.071837e+00
  4.798580e+00    3.060866e+00
  4.909709e+00    3.003060e+00
  5.020838e+00    3.086073e+00
  5.131967e+00    3.060529e+00
  5.243096e+00    3.099841e+00
  5.354225e+00    3.073529e+00
  5.465354e+00    2.998288e+00
  5.576483e+00    2.992621e+00
  5.687612e+00    3.138830e+00
  5.798741e+00    2.917675e+00
  5.909870e+00    3.029583e+00
  6.020999e+00    3.089198e+00
  6.132128e+00    3.023218e+00
  6.243257e+00    3.021872e+00
  6.354386e+00    2.954947e+00
  6.465515e+00    2.991050e+00
  6.576644e+00    3.055890e+00
  6.687773e+00    3.035822e+00
  6.798902e+00    2.930591e+00
  6.910031e+00    2.967966e+00
  7.021160e+00    2.936963e+00
  7.132289e+00    2.954952e+00
  7.243418e+00    2.930516e+00
  7.354547e+00    2.972743e+00
  7.465676e+00    2.892160e+00
  7.576805e+00    2.910410e+00
  7.687934e+00    2.894075e+00
  7.799063e+00    2.920987e+00
  7.910192e+00    2.877931e+00
  8.021321e+00    2.838514e+00
  8.132450e+00    2.955337e+00
  8.243579e+00    2.968469e+00
  8.354708e+00    2.844958e+00
  8.465837e+00    2.814188e+00
  8.576966e+00    2.844911e+00
  8.688095e+00    2.817210e+00
  8.799224e+00    2.863099e+00
  8.910353e+00    2.765217e+00
  9.021482e+00    2.772859e+00
  9.132611e+00    2.800280e+00
  9.243740e+00    2.740366e+00
  9.354869e+00    2.720919e+00
  9.465998e+00    2.737404e+00
  9.577127e+00    2.721027e+00
  9.688256e+00    2.710627e+00
  9.799385e+00    2.658158e+00
  9.910514e+00    2.686227e+00
  1.002164e+01    2.710461e+00
  1.013277e+01    2.589467e+00
  1.024390e+01    2.611449e+00
  1.035503e+01    2.572966e+00
  1.046616e+01    2.561670e+00
  1.057729e+01    2.533401e+00
  1.068842e+01    2.554602e+00
  1.079955e+01    2.460417e+00
  1.091068e+01    2.525722e+00
  1.102180e+01    2.440080e+00
  1.113293e+01    2.455627e+00
  1.124406e+01    2.443739e+00
  1.135519e+01    2.424946e+00
  1.146632e+01    2.358357e+00
  1.157745e+01    2.395867e+00
  1.168858e+01    2.389413e+00
  1.179971e+01    2.322433e+00
  1.191084e+01    2.359932e+00
  1.202197e+01    2.312223e+00
  1.213309e+01    2.317056e+00
  1.224422e+01    2.317844e+00
  1.235535e+01    2.324802e+00
  1.246648e+01    2.322494e+00
  1.257761e+01    2.343997e+00
  1.268874e+01    2.459404e+00
  1.279987e+01    2.628921e+00
  1.291100e+01    3.243867e+00
  1.302213e+01    6.089901e+00
  1.313326e+01    1.489930e+01
  1.324438e+01    1.301670e+01
  1.335551e+01    4.591663e+00
  1.346664e+01    2.929458e+00
  1.357777e+01    2.470696e+00
  1.368890e+01    2.265700e+00
  1.380003e+01    2.140772e+00
  1.391116e+01    2.076016e+00
  1.402229e+01    2.041663e+00
  1.413342e+01    2.005736e+00
  1.424455e+01    1.992800e+00
  1.435568e+01    1.940690e+00
  1.446680e+01    1.925342e+00
  1.457793e+01    1.899009e+00
  1.468906e+01    1.899012e+00
  1.480019e+01    1.934458e+00
  1.491132e+01    1.930244e+00
  1.502245e+01    2.195518e+00
  1.513358e+01    3.391704e+00
  1.524471e+01    5.844631e+00
  1.535584e+01    4.113741e+00
  1.546697e+01    2.250492e+00
  1.557809e+01    1.868518e+00
  1.568922e+01    1.733325e+00
  1.580035e+01    1.689759e+00
  1.591148e+01    1.618808e+00
  1.602261e+01    1.606471e+00
  1.613374e+01    1.542111e+00
  1.624487e+01    1.560864e+00
  1.635600e+01    1.521274e+00
  1.646713e+01    1.492817e+00
  1.657826e+01    1.519998e+00
  1.668938e+01    1.484314e+00
  1.680051e+01    1.493079e+00
  1.691164e+01    1.415887e+00
  1.702277e+01    1.416643e+00
  1.713390e+01    1.386260e+00
  1.724503e+01    1.385572e+00
  1.735616e+01    1.376458e+00
  1.746729e+01    1.362536e+00
  1.757842e+01    1.354596e+00
  1.768955e+01    1.335693e+00
  1.780067e+01    1.316467e+00
  1.791180e+01    1.313211e+00
  1.802293e+01    1.281465e+00
  1.813406e+01    1.274827e+00
  1.824519e+01    1.259784e+00
  1.835632e+01    1.271144e+00
  1.846745e+01    1.223578e+00
  1.857858e+01    1.229986e+00
  1.868971e+01    1.214794e+00
  1.880084e+01    1.209121e+00
  1.891196e+01    1.179097e+00
  1.902309e+01    1.178223e+00
  1.913422e+01    1.162257e+00
  1.924535e+01    1.158759e+00
  1.935648e+01    1.156883e+00
  1.946761e+01    1.156350e+00
  1.957874e+01    1.142752e+00
  1.968987e+01    1.128637e+00
  1.980100e+01    1.130019e+00
  1.991213e+01    1.120437e+00
  2.002325e+01    1.122826e+00
  2.013438e+01    1.128244e+00
  2.024551e+01    1.086453e+00
  2.035664e+01    1.074678e+00
  2.046777e+01    1.098123e+00
  2.057890e+01    1.065219e+00
  2.069003e+01    1.065187e+00
  2.080116e+01    1.080137e+00
  2.091229e+01    1.056185e+00
  2.102342e+01    1.091400e+00
  2.113455e+01    1.073734e+00
  2.124567e+01    1.087110e+00
  2.135680e+01    1.140574e+00
  2.146793e+01    1.241047e+00
  2.157906e+01    1.456031e+00
  2.169019e+01    2.239126e+00
  2.180132e+01    5.369444e+00
  2.191245e+01    9.922067e+00
  2.202358e+01    4.390147e+00
  2.213471e+01    1.927567e+00
  2.224584e+01    1.325112e+00
  2.235696e+01    1.143518e+00
  2.246809e+01    1.043172e+00
  2.257922e+01    1.006682e+00
  2.269035e+01    9.601042e-01
  2.280148e+01    9.380910e-01
  2.291261e+01    8.931532e-01
  2.302374e+01    9.224136e-01
  2.313487e+01    8.906085e-01
  2.324600e+01    8.666577e-01
  2.335713e+01    8.475277e-01
  2.346825e+01    8.680924e-01
  2.357938e+01    8.111741e-01
  2.369051e+01    8.227524e-01
  2.380164e+01    7.936737e-01
  2.391277e+01    7.868621e-01
  2.402390e+01    7.731434e-01
  2.413503e+01    7.550486e-01
  2.424616e+01    7.780297e-01
  2.435729e+01    7.919531e-01
  2.446842e+01    7.955290e-01
  2.457954e+01    7.842955e-01
  2.469067e+01    7.969013e-01
  2.480180e+01    7.718186e-01
  2.491293e+01    7.827514e-01
  2.502406e+01    8.097817e-01
  2.513519e+01    8.096832e-01
  2.524632e+01    8.296511e-01
  2.535745e+01    8.983445e-01
  2.546858e+01    9.320656e-01
  2.557971e+01    1.042930e+00
  2.569083e+01    1.381865e+00
  2.580196e+01    2.457593e+00
  2.591309e+01    6.201427e+00
  2.602422e+01    6.993135e+00
  2.613535e+01    2.559920e+00
  2.624648e+01    1.405664e+00
  2.635761e+01    1.067616e+00
  2.646874e+01    9.735761e-01
  2.657987e+01    9.282476e-01
  2.669100e+01    9.035344e-01
  2.680212e+01    8.943245e-01
  2.691325e+01    9.159695e-01
  2.702438e+01    1.045197e+00
  2.713551e+01    1.584851e+00
  2.724664e+01    2.332874e+00
  2.735777e+01    1.405238e+00
  2.746890e+01    9.877602e-01
  2.758003e+01    8.871158e-01
  2.769116e+01    8.227331e-01
  2.780229e+01    8.141785e-01
  2.791342e+01    8.040229e-01
  2.802454e+01    7.836082e-01
  2.813567e+01    7.726209e-01
  2.824680e+01    8.115789e-01
  2.835793e+01    7.636417e-01
  2.846906e+01    7.409428e-01
  2.858019e+01    7.583045e-01
  2.869132e+01    7.403106e-01
  2.880245e+01    7.444347e-01
  2.891358e+01    7.337657e-01
  2.902471e+01    7.429607e-01
  2.913583e+01    7.481977e-01
  2.924696e+01    7.301110e-01
  2.935809e+01    7.270651e-01
  2.946922e+01    7.366597e-01
  2.958035e+01    7.093862e-01
  2.969148e+01    6.960898e-01
  2.980261e+01    7.075268e-01
  2.991374e+01    6.999676e-01
  3.002487e+01    7.341057e-01
  3.013600e+01    7.514430e-01
  3.024712e+01    7.082297e-01
  3.035825e+01    7.008219e-01
  3.046938e+01    7.009857e-01
  3.058051e+01    6.988330e-01
  3.069164e+01    7.108968e-01
  3.080277e+01    7.091965e-01
  3.091390e+01    7.060466e-01
  3.102503e+01    7.225629e-01
  3.113616e+01    7.428151e-01
  3.124729e+01    7.396715e-01
  3.135841e+01    7.440937e-01
  3.146954e+01    7.384728e-01
  3.158067e+01    8.073409e-01
  3.169180e+01    9.171817e-01
  3.180293e+01    1.333961e+00
  3.191406e+01    2.292676e+00
  3.202519e+01    1.593768e+00
  3.213632e+01    9.657982e-01
  3.224745e+01    8.241982e-01
  3.235858e+01    7.668504e-01
  3.246970e+01    7.388615e-01
  3.254908e+01    7.203137e-01