Folder: myspot_2024_07/XRD/Activation ramp

Note: README.md
Beamtime at myspot
July 2024
Rosario, Raul y Andres

NEXAFS/EXAFS/XRD

File: 2024-07-27_002_Ru-CGO-ex_Activtation_ramp_000002_data_000001.dat
# == pyFAI calibration ==
# Distance Sample to Detector: 0.4 m
# PONI: 9.750e-02, 1.135e-01 m
# Rotations: -0.000175 0.000000 -0.000000 rad
#
# == Fit2d calibration ==
# Distance Sample-beamCenter: 400.000 mm
# Center: x=1514.000, y=1300.000 pix
# Tilt: 0.010 deg  TiltPlanRot: 0.010 deg
#
# Detector Detector	 Spline= None	 PixelSize= 7.500e-05, 7.500e-05 m
#    Detector has a mask: False
#    Detector has a dark current: False
#    detector has a flat field: False
#
# Wavelength: 6.888e-11 m
# Mask applied: user provided
# Dark current applied: False
# Flat field applied: False
# Polarization factor: 0.99
# Normalization factor: 1.0
# --> /home/myspot/data/2024_07_Rosario/Ru-CGO-ex/2024-07-27_002_Ru-CGO-ex_Activtation_ramp_000002_data_000001.dat
#       q_nm^-1             I
  2.003187e-02    0.000000e+00
  1.311609e-01    1.394856e-01
  2.422899e-01    4.846483e-02
  3.534189e-01    3.083201e-02
  4.645479e-01    6.906959e-02
  5.756770e-01    2.505833e-02
  6.868060e-01    1.408403e-02
  7.979350e-01    9.766860e-02
  9.090640e-01    5.356330e-01
  1.020193e+00    1.158760e+00
  1.131322e+00    1.521300e+00
  1.242451e+00    2.352036e+00
  1.353580e+00    2.676651e+00
  1.464709e+00    2.867654e+00
  1.575838e+00    2.981420e+00
  1.686967e+00    2.894730e+00
  1.798096e+00    2.897225e+00
  1.909225e+00    2.826488e+00
  2.020354e+00    2.903297e+00
  2.131483e+00    2.828141e+00
  2.242612e+00    2.959036e+00
  2.353741e+00    2.811574e+00
  2.464870e+00    2.857511e+00
  2.575999e+00    2.862920e+00
  2.687128e+00    2.884374e+00
  2.798257e+00    2.897073e+00
  2.909386e+00    2.871069e+00
  3.020515e+00    2.941004e+00
  3.131644e+00    2.844709e+00
  3.242773e+00    2.883415e+00
  3.353902e+00    3.020902e+00
  3.465031e+00    2.994569e+00
  3.576160e+00    3.033317e+00
  3.687289e+00    2.946748e+00
  3.798418e+00    3.042754e+00
  3.909547e+00    3.024128e+00
  4.020676e+00    3.060367e+00
  4.131806e+00    3.085755e+00
  4.242935e+00    3.050132e+00
  4.354064e+00    3.017985e+00
  4.465193e+00    3.113305e+00
  4.576322e+00    3.169171e+00
  4.687451e+00    3.121846e+00
  4.798580e+00    3.106167e+00
  4.909709e+00    3.150451e+00
  5.020838e+00    3.124212e+00
  5.131967e+00    3.167810e+00
  5.243096e+00    3.142628e+00
  5.354225e+00    3.236003e+00
  5.465354e+00    3.086172e+00
  5.576483e+00    3.197949e+00
  5.687612e+00    3.075951e+00
  5.798741e+00    3.089499e+00
  5.909870e+00    3.000689e+00
  6.020999e+00    3.115125e+00
  6.132128e+00    3.051471e+00
  6.243257e+00    3.029238e+00
  6.354386e+00    3.050661e+00
  6.465515e+00    3.102317e+00
  6.576644e+00    3.111030e+00
  6.687773e+00    3.032762e+00
  6.798902e+00    3.036610e+00
  6.910031e+00    3.065428e+00
  7.021160e+00    3.086900e+00
  7.132289e+00    3.068248e+00
  7.243418e+00    3.028931e+00
  7.354547e+00    2.985259e+00
  7.465676e+00    3.028926e+00
  7.576805e+00    2.983496e+00
  7.687934e+00    2.997632e+00
  7.799063e+00    3.000087e+00
  7.910192e+00    2.934148e+00
  8.021321e+00    2.920245e+00
  8.132450e+00    3.016250e+00
  8.243579e+00    3.000734e+00
  8.354708e+00    3.009223e+00
  8.465837e+00    2.957129e+00
  8.576966e+00    2.899105e+00
  8.688095e+00    2.915551e+00
  8.799224e+00    2.875553e+00
  8.910353e+00    2.805423e+00
  9.021482e+00    2.887158e+00
  9.132611e+00    2.836265e+00
  9.243740e+00    2.835258e+00
  9.354869e+00    2.737831e+00
  9.465998e+00    2.888836e+00
  9.577127e+00    2.809319e+00
  9.688256e+00    2.843608e+00
  9.799385e+00    2.762736e+00
  9.910514e+00    2.689455e+00
  1.002164e+01    2.741092e+00
  1.013277e+01    2.659855e+00
  1.024390e+01    2.652817e+00
  1.035503e+01    2.660727e+00
  1.046616e+01    2.691477e+00
  1.057729e+01    2.609144e+00
  1.068842e+01    2.598832e+00
  1.079955e+01    2.566685e+00
  1.091068e+01    2.570734e+00
  1.102180e+01    2.575369e+00
  1.113293e+01    2.506240e+00
  1.124406e+01    2.477283e+00
  1.135519e+01    2.429940e+00
  1.146632e+01    2.463190e+00
  1.157745e+01    2.419182e+00
  1.168858e+01    2.396439e+00
  1.179971e+01    2.419705e+00
  1.191084e+01    2.375555e+00
  1.202197e+01    2.342979e+00
  1.213309e+01    2.398798e+00
  1.224422e+01    2.406964e+00
  1.235535e+01    2.386724e+00
  1.246648e+01    2.350104e+00
  1.257761e+01    2.430329e+00
  1.268874e+01    2.488496e+00
  1.279987e+01    2.700918e+00
  1.291100e+01    3.338964e+00
  1.302213e+01    5.823850e+00
  1.313326e+01    1.500868e+01
  1.324438e+01    1.693965e+01
  1.335551e+01    5.658130e+00
  1.346664e+01    3.256595e+00
  1.357777e+01    2.606055e+00
  1.368890e+01    2.423208e+00
  1.380003e+01    2.206438e+00
  1.391116e+01    2.154436e+00
  1.402229e+01    2.094237e+00
  1.413342e+01    2.044236e+00
  1.424455e+01    2.034871e+00
  1.435568e+01    2.008989e+00
  1.446680e+01    1.954788e+00
  1.457793e+01    1.923856e+00
  1.468906e+01    1.897444e+00
  1.480019e+01    1.960883e+00
  1.491132e+01    2.010056e+00
  1.502245e+01    2.225426e+00
  1.513358e+01    3.190736e+00
  1.524471e+01    6.063147e+00
  1.535584e+01    5.205264e+00
  1.546697e+01    2.577357e+00
  1.557809e+01    1.996758e+00
  1.568922e+01    1.823928e+00
  1.580035e+01    1.753239e+00
  1.591148e+01    1.695164e+00
  1.602261e+01    1.608848e+00
  1.613374e+01    1.624436e+00
  1.624487e+01    1.584921e+00
  1.635600e+01    1.563100e+00
  1.646713e+01    1.505571e+00
  1.657826e+01    1.508326e+00
  1.668938e+01    1.538807e+00
  1.680051e+01    1.469474e+00
  1.691164e+01    1.508692e+00
  1.702277e+01    1.446847e+00
  1.713390e+01    1.456295e+00
  1.724503e+01    1.418837e+00
  1.735616e+01    1.444910e+00
  1.746729e+01    1.379837e+00
  1.757842e+01    1.419554e+00
  1.768955e+01    1.362345e+00
  1.780067e+01    1.365666e+00
  1.791180e+01    1.330632e+00
  1.802293e+01    1.322824e+00
  1.813406e+01    1.299622e+00
  1.824519e+01    1.295390e+00
  1.835632e+01    1.274170e+00
  1.846745e+01    1.292809e+00
  1.857858e+01    1.253858e+00
  1.868971e+01    1.263770e+00
  1.880084e+01    1.253010e+00
  1.891196e+01    1.216640e+00
  1.902309e+01    1.215008e+00
  1.913422e+01    1.215486e+00
  1.924535e+01    1.193545e+00
  1.935648e+01    1.210183e+00
  1.946761e+01    1.210955e+00
  1.957874e+01    1.169314e+00
  1.968987e+01    1.170082e+00
  1.980100e+01    1.161268e+00
  1.991213e+01    1.138932e+00
  2.002325e+01    1.131592e+00
  2.013438e+01    1.146003e+00
  2.024551e+01    1.130907e+00
  2.035664e+01    1.102691e+00
  2.046777e+01    1.121828e+00
  2.057890e+01    1.121442e+00
  2.069003e+01    1.113978e+00
  2.080116e+01    1.097821e+00
  2.091229e+01    1.107382e+00
  2.102342e+01    1.092099e+00
  2.113455e+01    1.122889e+00
  2.124567e+01    1.142715e+00
  2.135680e+01    1.142109e+00
  2.146793e+01    1.259830e+00
  2.157906e+01    1.452743e+00
  2.169019e+01    2.075487e+00
  2.180132e+01    4.709459e+00
  2.191245e+01    1.058493e+01
  2.202358e+01    6.563629e+00
  2.213471e+01    2.479265e+00
  2.224584e+01    1.529536e+00
  2.235696e+01    1.244465e+00
  2.246809e+01    1.107036e+00
  2.257922e+01    1.059432e+00
  2.269035e+01    9.856043e-01
  2.280148e+01    9.674986e-01
  2.291261e+01    9.473651e-01
  2.302374e+01    9.193688e-01
  2.313487e+01    8.963259e-01
  2.324600e+01    8.825008e-01
  2.335713e+01    9.058923e-01
  2.346825e+01    8.536891e-01
  2.357938e+01    8.687598e-01
  2.369051e+01    8.462132e-01
  2.380164e+01    8.321281e-01
  2.391277e+01    8.279307e-01
  2.402390e+01    8.060433e-01
  2.413503e+01    7.869492e-01
  2.424616e+01    7.949636e-01
  2.435729e+01    8.124717e-01
  2.446842e+01    8.000273e-01
  2.457954e+01    8.162135e-01
  2.469067e+01    8.231626e-01
  2.480180e+01    8.014823e-01
  2.491293e+01    8.290933e-01
  2.502406e+01    8.150966e-01
  2.513519e+01    8.322021e-01
  2.524632e+01    8.655146e-01
  2.535745e+01    8.961478e-01
  2.546858e+01    9.585247e-01
  2.557971e+01    1.063831e+00
  2.569083e+01    1.296026e+00
  2.580196e+01    2.151440e+00
  2.591309e+01    5.309802e+00
  2.602422e+01    9.317531e+00
  2.613535e+01    3.879707e+00
  2.624648e+01    1.754294e+00
  2.635761e+01    1.213295e+00
  2.646874e+01    1.030127e+00
  2.657987e+01    9.643344e-01
  2.669100e+01    9.426980e-01
  2.680212e+01    9.122326e-01
  2.691325e+01    9.363362e-01
  2.702438e+01    1.023306e+00
  2.713551e+01    1.405371e+00
  2.724664e+01    2.513140e+00
  2.735777e+01    1.900523e+00
  2.746890e+01    1.131802e+00
  2.758003e+01    9.406364e-01
  2.769116e+01    8.642819e-01
  2.780229e+01    8.514216e-01
  2.791342e+01    8.241543e-01
  2.802454e+01    8.143860e-01
  2.813567e+01    7.971902e-01
  2.824680e+01    8.213659e-01
  2.835793e+01    7.923439e-01
  2.846906e+01    7.845096e-01
  2.858019e+01    7.648324e-01
  2.869132e+01    7.859098e-01
  2.880245e+01    7.764827e-01
  2.891358e+01    7.747188e-01
  2.902471e+01    7.434239e-01
  2.913583e+01    7.474563e-01
  2.924696e+01    7.675262e-01
  2.935809e+01    7.579177e-01
  2.946922e+01    7.509023e-01
  2.958035e+01    7.443298e-01
  2.969148e+01    7.364662e-01
  2.980261e+01    7.603580e-01
  2.991374e+01    7.343253e-01
  3.002487e+01    7.270641e-01
  3.013600e+01    7.264429e-01
  3.024712e+01    7.306510e-01
  3.035825e+01    7.368408e-01
  3.046938e+01    7.369944e-01
  3.058051e+01    7.269692e-01
  3.069164e+01    7.313557e-01
  3.080277e+01    7.277700e-01
  3.091390e+01    7.187477e-01
  3.102503e+01    7.322912e-01
  3.113616e+01    7.426276e-01
  3.124729e+01    7.435337e-01
  3.135841e+01    7.399114e-01
  3.146954e+01    7.547030e-01
  3.158067e+01    7.940432e-01
  3.169180e+01    8.785209e-01
  3.180293e+01    1.171077e+00
  3.191406e+01    2.215363e+00
  3.202519e+01    2.299245e+00
  3.213632e+01    1.167809e+00
  3.224745e+01    8.910384e-01
  3.235858e+01    7.816870e-01
  3.246970e+01    7.509651e-01
  3.254908e+01    7.604467e-01

File: 2024-07-27_002_Ru-CGO-ex_Activtation_ramp_000002_data_000003.dat
# == pyFAI calibration ==
# Distance Sample to Detector: 0.4 m
# PONI: 9.750e-02, 1.135e-01 m
# Rotations: -0.000175 0.000000 -0.000000 rad
#
# == Fit2d calibration ==
# Distance Sample-beamCenter: 400.000 mm
# Center: x=1514.000, y=1300.000 pix
# Tilt: 0.010 deg  TiltPlanRot: 0.010 deg
#
# Detector Detector	 Spline= None	 PixelSize= 7.500e-05, 7.500e-05 m
#    Detector has a mask: False
#    Detector has a dark current: False
#    detector has a flat field: False
#
# Wavelength: 6.888e-11 m
# Mask applied: user provided
# Dark current applied: False
# Flat field applied: False
# Polarization factor: 0.99
# Normalization factor: 1.0
# --> /home/myspot/data/2024_07_Rosario/Ru-CGO-ex/2024-07-27_002_Ru-CGO-ex_Activtation_ramp_000002_data_000003.dat
#       q_nm^-1             I
  2.003187e-02    0.000000e+00
  1.311609e-01    1.358899e-02
  2.422899e-01    3.221264e-02
  3.534189e-01    1.100101e-02
  4.645479e-01    4.309087e-02
  5.756770e-01    4.313975e-02
  6.868060e-01    4.027653e-02
  7.979350e-01    1.668979e-01
  9.090640e-01    4.588186e-01
  1.020193e+00    1.159379e+00
  1.131322e+00    1.571514e+00
  1.242451e+00    2.245364e+00
  1.353580e+00    2.633399e+00
  1.464709e+00    3.001102e+00
  1.575838e+00    3.203136e+00
  1.686967e+00    2.896292e+00
  1.798096e+00    2.973845e+00
  1.909225e+00    2.887398e+00
  2.020354e+00    2.883025e+00
  2.131483e+00    2.848378e+00
  2.242612e+00    2.820476e+00
  2.353741e+00    2.870666e+00
  2.464870e+00    2.792352e+00
  2.575999e+00    2.870500e+00
  2.687128e+00    2.841916e+00
  2.798257e+00    2.960810e+00
  2.909386e+00    2.928506e+00
  3.020515e+00    2.967153e+00
  3.131644e+00    2.894078e+00
  3.242773e+00    3.005655e+00
  3.353902e+00    2.993729e+00
  3.465031e+00    2.869296e+00
  3.576160e+00    3.021433e+00
  3.687289e+00    3.046493e+00
  3.798418e+00    3.021047e+00
  3.909547e+00    3.081699e+00
  4.020676e+00    3.147338e+00
  4.131806e+00    3.072944e+00
  4.242935e+00    3.145826e+00
  4.354064e+00    3.027143e+00
  4.465193e+00    3.160319e+00
  4.576322e+00    3.105930e+00
  4.687451e+00    3.093071e+00
  4.798580e+00    3.212735e+00
  4.909709e+00    3.135218e+00
  5.020838e+00    3.213507e+00
  5.131967e+00    3.158044e+00
  5.243096e+00    3.175200e+00
  5.354225e+00    3.114311e+00
  5.465354e+00    3.074915e+00
  5.576483e+00    3.133231e+00
  5.687612e+00    3.060217e+00
  5.798741e+00    3.129682e+00
  5.909870e+00    3.058089e+00
  6.020999e+00    3.054904e+00
  6.132128e+00    3.080349e+00
  6.243257e+00    3.062090e+00
  6.354386e+00    3.028363e+00
  6.465515e+00    3.083062e+00
  6.576644e+00    3.086959e+00
  6.687773e+00    3.078172e+00
  6.798902e+00    3.064429e+00
  6.910031e+00    3.102815e+00
  7.021160e+00    3.059824e+00
  7.132289e+00    3.035823e+00
  7.243418e+00    3.027735e+00
  7.354547e+00    3.016098e+00
  7.465676e+00    3.047319e+00
  7.576805e+00    3.007194e+00
  7.687934e+00    2.982948e+00
  7.799063e+00    3.035999e+00
  7.910192e+00    2.914817e+00
  8.021321e+00    2.941931e+00
  8.132450e+00    3.001490e+00
  8.243579e+00    3.016088e+00
  8.354708e+00    2.973443e+00
  8.465837e+00    2.846861e+00
  8.576966e+00    2.943164e+00
  8.688095e+00    2.882264e+00
  8.799224e+00    2.876745e+00
  8.910353e+00    2.877455e+00
  9.021482e+00    2.790101e+00
  9.132611e+00    2.842577e+00
  9.243740e+00    2.795130e+00
  9.354869e+00    2.782139e+00
  9.465998e+00    2.797157e+00
  9.577127e+00    2.770997e+00
  9.688256e+00    2.716458e+00
  9.799385e+00    2.750133e+00
  9.910514e+00    2.719634e+00
  1.002164e+01    2.678636e+00
  1.013277e+01    2.698294e+00
  1.024390e+01    2.673050e+00
  1.035503e+01    2.660506e+00
  1.046616e+01    2.604070e+00
  1.057729e+01    2.606826e+00
  1.068842e+01    2.565562e+00
  1.079955e+01    2.530198e+00
  1.091068e+01    2.583654e+00
  1.102180e+01    2.477881e+00
  1.113293e+01    2.513695e+00
  1.124406e+01    2.514322e+00
  1.135519e+01    2.491217e+00
  1.146632e+01    2.454474e+00
  1.157745e+01    2.396327e+00
  1.168858e+01    2.377809e+00
  1.179971e+01    2.454504e+00
  1.191084e+01    2.382305e+00
  1.202197e+01    2.391372e+00
  1.213309e+01    2.347948e+00
  1.224422e+01    2.384212e+00
  1.235535e+01    2.366511e+00
  1.246648e+01    2.384926e+00
  1.257761e+01    2.418765e+00
  1.268874e+01    2.498520e+00
  1.279987e+01    2.680034e+00
  1.291100e+01    3.358457e+00
  1.302213e+01    5.795453e+00
  1.313326e+01    1.502993e+01
  1.324438e+01    1.689003e+01
  1.335551e+01    5.633985e+00
  1.346664e+01    3.226915e+00
  1.357777e+01    2.629629e+00
  1.368890e+01    2.339834e+00
  1.380003e+01    2.247759e+00
  1.391116e+01    2.176599e+00
  1.402229e+01    2.078993e+00
  1.413342e+01    2.085013e+00
  1.424455e+01    2.005088e+00
  1.435568e+01    1.985759e+00
  1.446680e+01    1.987233e+00
  1.457793e+01    1.927722e+00
  1.468906e+01    1.979648e+00
  1.480019e+01    1.929721e+00
  1.491132e+01    1.989201e+00
  1.502245e+01    2.215037e+00
  1.513358e+01    3.221270e+00
  1.524471e+01    6.073947e+00
  1.535584e+01    5.264781e+00
  1.546697e+01    2.570983e+00
  1.557809e+01    1.994720e+00
  1.568922e+01    1.807077e+00
  1.580035e+01    1.724028e+00
  1.591148e+01    1.682977e+00
  1.602261e+01    1.606448e+00
  1.613374e+01    1.634485e+00
  1.624487e+01    1.586931e+00
  1.635600e+01    1.593584e+00
  1.646713e+01    1.532836e+00
  1.657826e+01    1.540027e+00
  1.668938e+01    1.517990e+00
  1.680051e+01    1.477361e+00
  1.691164e+01    1.486614e+00
  1.702277e+01    1.480527e+00
  1.713390e+01    1.452613e+00
  1.724503e+01    1.430613e+00
  1.735616e+01    1.398304e+00
  1.746729e+01    1.408933e+00
  1.757842e+01    1.363648e+00
  1.768955e+01    1.368565e+00
  1.780067e+01    1.353333e+00
  1.791180e+01    1.375471e+00
  1.802293e+01    1.351327e+00
  1.813406e+01    1.309819e+00
  1.824519e+01    1.323622e+00
  1.835632e+01    1.288900e+00
  1.846745e+01    1.268675e+00
  1.857858e+01    1.258710e+00
  1.868971e+01    1.272433e+00
  1.880084e+01    1.274846e+00
  1.891196e+01    1.241117e+00
  1.902309e+01    1.205461e+00
  1.913422e+01    1.230569e+00
  1.924535e+01    1.209976e+00
  1.935648e+01    1.202396e+00
  1.946761e+01    1.206569e+00
  1.957874e+01    1.191941e+00
  1.968987e+01    1.177717e+00
  1.980100e+01    1.158749e+00
  1.991213e+01    1.137583e+00
  2.002325e+01    1.153696e+00
  2.013438e+01    1.123563e+00
  2.024551e+01    1.134615e+00
  2.035664e+01    1.110127e+00
  2.046777e+01    1.098726e+00
  2.057890e+01    1.112335e+00
  2.069003e+01    1.115104e+00
  2.080116e+01    1.093190e+00
  2.091229e+01    1.100194e+00
  2.102342e+01    1.118047e+00
  2.113455e+01    1.114510e+00
  2.124567e+01    1.120251e+00
  2.135680e+01    1.159570e+00
  2.146793e+01    1.263716e+00
  2.157906e+01    1.447964e+00
  2.169019e+01    2.074888e+00
  2.180132e+01    4.673319e+00
  2.191245e+01    1.055490e+01
  2.202358e+01    6.530452e+00
  2.213471e+01    2.495718e+00
  2.224584e+01    1.516121e+00
  2.235696e+01    1.222540e+00
  2.246809e+01    1.112586e+00
  2.257922e+01    1.040013e+00
  2.269035e+01    9.913042e-01
  2.280148e+01    9.714313e-01
  2.291261e+01    9.199542e-01
  2.302374e+01    9.156514e-01
  2.313487e+01    9.093655e-01
  2.324600e+01    8.790452e-01
  2.335713e+01    8.904830e-01
  2.346825e+01    8.821225e-01
  2.357938e+01    8.738709e-01
  2.369051e+01    8.589497e-01
  2.380164e+01    8.187028e-01
  2.391277e+01    8.089933e-01
  2.402390e+01    8.156071e-01
  2.413503e+01    8.168765e-01
  2.424616e+01    8.056172e-01
  2.435729e+01    7.945189e-01
  2.446842e+01    8.258747e-01
  2.457954e+01    8.127656e-01
  2.469067e+01    8.054845e-01
  2.480180e+01    7.965136e-01
  2.491293e+01    8.076850e-01
  2.502406e+01    8.243172e-01
  2.513519e+01    8.205487e-01
  2.524632e+01    8.747087e-01
  2.535745e+01    9.002413e-01
  2.546858e+01    9.527776e-01
  2.557971e+01    1.092191e+00
  2.569083e+01    1.351352e+00
  2.580196e+01    2.161799e+00
  2.591309e+01    5.382451e+00
  2.602422e+01    9.244895e+00
  2.613535e+01    3.859373e+00
  2.624648e+01    1.789527e+00
  2.635761e+01    1.227855e+00
  2.646874e+01    1.040828e+00
  2.657987e+01    9.815156e-01
  2.669100e+01    9.426779e-01
  2.680212e+01    9.392850e-01
  2.691325e+01    9.804863e-01
  2.702438e+01    1.057892e+00
  2.713551e+01    1.409892e+00
  2.724664e+01    2.545378e+00
  2.735777e+01    1.893535e+00
  2.746890e+01    1.141372e+00
  2.758003e+01    9.344714e-01
  2.769116e+01    8.686836e-01
  2.780229e+01    8.580059e-01
  2.791342e+01    8.303798e-01
  2.802454e+01    8.045328e-01
  2.813567e+01    8.044056e-01
  2.824680e+01    8.086617e-01
  2.835793e+01    8.003207e-01
  2.846906e+01    7.917114e-01
  2.858019e+01    7.857782e-01
  2.869132e+01    7.729430e-01
  2.880245e+01    7.620948e-01
  2.891358e+01    7.664512e-01
  2.902471e+01    7.487797e-01
  2.913583e+01    7.599548e-01
  2.924696e+01    7.615911e-01
  2.935809e+01    7.433705e-01
  2.946922e+01    7.504930e-01
  2.958035e+01    7.504568e-01
  2.969148e+01    7.512594e-01
  2.980261e+01    7.463158e-01
  2.991374e+01    7.304757e-01
  3.002487e+01    7.459218e-01
  3.013600e+01    7.465552e-01
  3.024712e+01    7.283574e-01
  3.035825e+01    7.301117e-01
  3.046938e+01    7.261112e-01
  3.058051e+01    7.251086e-01
  3.069164e+01    7.265034e-01
  3.080277e+01    7.497898e-01
  3.091390e+01    7.056013e-01
  3.102503e+01    7.469838e-01
  3.113616e+01    7.367697e-01
  3.124729e+01    7.583324e-01
  3.135841e+01    7.598417e-01
  3.146954e+01    7.677691e-01
  3.158067e+01    7.923471e-01
  3.169180e+01    8.878339e-01
  3.180293e+01    1.170725e+00
  3.191406e+01    2.205722e+00
  3.202519e+01    2.280034e+00
  3.213632e+01    1.189748e+00
  3.224745e+01    8.591350e-01
  3.235858e+01    8.023716e-01
  3.246970e+01    7.973691e-01
  3.254908e+01    7.701515e-01