Folder: myspot_2024_07/XRD/Activation ramp (part 9)

File: 2024-07-27_002_Ru-CGO-ex_Activtation_ramp_000002_data_000041.dat
# == pyFAI calibration ==
# Distance Sample to Detector: 0.4 m
# PONI: 9.750e-02, 1.135e-01 m
# Rotations: -0.000175 0.000000 -0.000000 rad
#
# == Fit2d calibration ==
# Distance Sample-beamCenter: 400.000 mm
# Center: x=1514.000, y=1300.000 pix
# Tilt: 0.010 deg  TiltPlanRot: 0.010 deg
#
# Detector Detector	 Spline= None	 PixelSize= 7.500e-05, 7.500e-05 m
#    Detector has a mask: False
#    Detector has a dark current: False
#    detector has a flat field: False
#
# Wavelength: 6.888e-11 m
# Mask applied: user provided
# Dark current applied: False
# Flat field applied: False
# Polarization factor: 0.99
# Normalization factor: 1.0
# --> /home/myspot/data/2024_07_Rosario/Ru-CGO-ex/2024-07-27_002_Ru-CGO-ex_Activtation_ramp_000002_data_000041.dat
#       q_nm^-1             I
  2.003187e-02    1.542422e-01
  1.311609e-01    0.000000e+00
  2.422899e-01    5.749959e-02
  3.534189e-01    2.949231e-02
  4.645479e-01    2.748089e-02
  5.756770e-01    3.035558e-02
  6.868060e-01    4.071840e-02
  7.979350e-01    1.229678e-01
  9.090640e-01    5.897386e-01
  1.020193e+00    1.118118e+00
  1.131322e+00    1.319543e+00
  1.242451e+00    2.203567e+00
  1.353580e+00    2.635932e+00
  1.464709e+00    2.773238e+00
  1.575838e+00    2.915266e+00
  1.686967e+00    2.954072e+00
  1.798096e+00    2.921202e+00
  1.909225e+00    2.806266e+00
  2.020354e+00    2.808428e+00
  2.131483e+00    2.869736e+00
  2.242612e+00    2.763846e+00
  2.353741e+00    2.804305e+00
  2.464870e+00    2.895514e+00
  2.575999e+00    2.868967e+00
  2.687128e+00    2.793468e+00
  2.798257e+00    2.781911e+00
  2.909386e+00    2.909494e+00
  3.020515e+00    2.890919e+00
  3.131644e+00    2.896303e+00
  3.242773e+00    2.987482e+00
  3.353902e+00    2.866269e+00
  3.465031e+00    2.936728e+00
  3.576160e+00    3.019652e+00
  3.687289e+00    2.981711e+00
  3.798418e+00    3.024499e+00
  3.909547e+00    2.905590e+00
  4.020676e+00    3.032452e+00
  4.131806e+00    2.998942e+00
  4.242935e+00    3.064057e+00
  4.354064e+00    2.955796e+00
  4.465193e+00    3.025060e+00
  4.576322e+00    3.064357e+00
  4.687451e+00    3.084643e+00
  4.798580e+00    3.136903e+00
  4.909709e+00    3.015919e+00
  5.020838e+00    3.068688e+00
  5.131967e+00    3.132079e+00
  5.243096e+00    3.177440e+00
  5.354225e+00    3.107151e+00
  5.465354e+00    3.055153e+00
  5.576483e+00    3.142416e+00
  5.687612e+00    3.078941e+00
  5.798741e+00    3.102053e+00
  5.909870e+00    2.992420e+00
  6.020999e+00    3.066877e+00
  6.132128e+00    3.049706e+00
  6.243257e+00    3.092637e+00
  6.354386e+00    3.083943e+00
  6.465515e+00    3.018033e+00
  6.576644e+00    2.964821e+00
  6.687773e+00    2.998708e+00
  6.798902e+00    3.027934e+00
  6.910031e+00    2.916427e+00
  7.021160e+00    2.945551e+00
  7.132289e+00    2.995030e+00
  7.243418e+00    3.013972e+00
  7.354547e+00    2.992803e+00
  7.465676e+00    3.038468e+00
  7.576805e+00    3.012337e+00
  7.687934e+00    2.939607e+00
  7.799063e+00    2.937700e+00
  7.910192e+00    2.902550e+00
  8.021321e+00    2.993954e+00
  8.132450e+00    2.876503e+00
  8.243579e+00    2.895280e+00
  8.354708e+00    2.929203e+00
  8.465837e+00    2.945810e+00
  8.576966e+00    2.865188e+00
  8.688095e+00    2.937723e+00
  8.799224e+00    2.851902e+00
  8.910353e+00    2.830837e+00
  9.021482e+00    2.889567e+00
  9.132611e+00    2.759264e+00
  9.243740e+00    2.767876e+00
  9.354869e+00    2.784119e+00
  9.465998e+00    2.750957e+00
  9.577127e+00    2.760204e+00
  9.688256e+00    2.716182e+00
  9.799385e+00    2.708024e+00
  9.910514e+00    2.714731e+00
  1.002164e+01    2.750648e+00
  1.013277e+01    2.625559e+00
  1.024390e+01    2.665889e+00
  1.035503e+01    2.635032e+00
  1.046616e+01    2.546860e+00
  1.057729e+01    2.616725e+00
  1.068842e+01    2.542922e+00
  1.079955e+01    2.504558e+00
  1.091068e+01    2.587568e+00
  1.102180e+01    2.472502e+00
  1.113293e+01    2.492331e+00
  1.124406e+01    2.480211e+00
  1.135519e+01    2.444417e+00
  1.146632e+01    2.463198e+00
  1.157745e+01    2.426369e+00
  1.168858e+01    2.353949e+00
  1.179971e+01    2.383574e+00
  1.191084e+01    2.362339e+00
  1.202197e+01    2.343481e+00
  1.213309e+01    2.318097e+00
  1.224422e+01    2.336690e+00
  1.235535e+01    2.318174e+00
  1.246648e+01    2.371778e+00
  1.257761e+01    2.398993e+00
  1.268874e+01    2.487533e+00
  1.279987e+01    2.686504e+00
  1.291100e+01    3.285846e+00
  1.302213e+01    5.845550e+00
  1.313326e+01    1.513200e+01
  1.324438e+01    1.572848e+01
  1.335551e+01    5.278521e+00
  1.346664e+01    3.166606e+00
  1.357777e+01    2.571270e+00
  1.368890e+01    2.314196e+00
  1.380003e+01    2.194074e+00
  1.391116e+01    2.119492e+00
  1.402229e+01    2.058862e+00
  1.413342e+01    2.042168e+00
  1.424455e+01    2.014715e+00
  1.435568e+01    1.964012e+00
  1.446680e+01    1.927859e+00
  1.457793e+01    1.899839e+00
  1.468906e+01    1.936440e+00
  1.480019e+01    1.953631e+00
  1.491132e+01    1.958625e+00
  1.502245e+01    2.235045e+00
  1.513358e+01    3.248593e+00
  1.524471e+01    5.931401e+00
  1.535584e+01    4.788747e+00
  1.546697e+01    2.399382e+00
  1.557809e+01    1.938129e+00
  1.568922e+01    1.794056e+00
  1.580035e+01    1.687966e+00
  1.591148e+01    1.662187e+00
  1.602261e+01    1.619254e+00
  1.613374e+01    1.619265e+00
  1.624487e+01    1.592903e+00
  1.635600e+01    1.552846e+00
  1.646713e+01    1.520872e+00
  1.657826e+01    1.516459e+00
  1.668938e+01    1.489405e+00
  1.680051e+01    1.512835e+00
  1.691164e+01    1.465681e+00
  1.702277e+01    1.431245e+00
  1.713390e+01    1.433635e+00
  1.724503e+01    1.416680e+00
  1.735616e+01    1.411863e+00
  1.746729e+01    1.391046e+00
  1.757842e+01    1.367806e+00
  1.768955e+01    1.356052e+00
  1.780067e+01    1.355476e+00
  1.791180e+01    1.365145e+00
  1.802293e+01    1.283256e+00
  1.813406e+01    1.309858e+00
  1.824519e+01    1.294693e+00
  1.835632e+01    1.266609e+00
  1.846745e+01    1.268105e+00
  1.857858e+01    1.276623e+00
  1.868971e+01    1.252447e+00
  1.880084e+01    1.241026e+00
  1.891196e+01    1.221182e+00
  1.902309e+01    1.210952e+00
  1.913422e+01    1.177290e+00
  1.924535e+01    1.193346e+00
  1.935648e+01    1.203036e+00
  1.946761e+01    1.186478e+00
  1.957874e+01    1.151300e+00
  1.968987e+01    1.166839e+00
  1.980100e+01    1.150353e+00
  1.991213e+01    1.118527e+00
  2.002325e+01    1.115874e+00
  2.013438e+01    1.115575e+00
  2.024551e+01    1.096276e+00
  2.035664e+01    1.098798e+00
  2.046777e+01    1.105512e+00
  2.057890e+01    1.075652e+00
  2.069003e+01    1.095150e+00
  2.080116e+01    1.083643e+00
  2.091229e+01    1.113798e+00
  2.102342e+01    1.089366e+00
  2.113455e+01    1.102452e+00
  2.124567e+01    1.133104e+00
  2.135680e+01    1.163909e+00
  2.146793e+01    1.236019e+00
  2.157906e+01    1.467941e+00
  2.169019e+01    2.116995e+00
  2.180132e+01    4.932907e+00
  2.191245e+01    1.042782e+01
  2.202358e+01    5.716670e+00
  2.213471e+01    2.282893e+00
  2.224584e+01    1.437230e+00
  2.235696e+01    1.201581e+00
  2.246809e+01    1.085995e+00
  2.257922e+01    1.024782e+00
  2.269035e+01    9.733595e-01
  2.280148e+01    9.394197e-01
  2.291261e+01    9.402733e-01
  2.302374e+01    8.978694e-01
  2.313487e+01    8.863276e-01
  2.324600e+01    8.833320e-01
  2.335713e+01    8.967218e-01
  2.346825e+01    8.611964e-01
  2.357938e+01    8.599645e-01
  2.369051e+01    8.279824e-01
  2.380164e+01    8.316559e-01
  2.391277e+01    7.861845e-01
  2.402390e+01    7.902917e-01
  2.413503e+01    7.825849e-01
  2.424616e+01    7.884693e-01
  2.435729e+01    8.065528e-01
  2.446842e+01    7.938744e-01
  2.457954e+01    7.996827e-01
  2.469067e+01    8.076242e-01
  2.480180e+01    8.050466e-01
  2.491293e+01    8.021609e-01
  2.502406e+01    8.212744e-01
  2.513519e+01    8.230952e-01
  2.524632e+01    8.549508e-01
  2.535745e+01    8.940167e-01
  2.546858e+01    9.514844e-01
  2.557971e+01    1.048082e+00
  2.569083e+01    1.350898e+00
  2.580196e+01    2.242831e+00
  2.591309e+01    5.728440e+00
  2.602422e+01    8.588345e+00
  2.613535e+01    3.325646e+00
  2.624648e+01    1.620289e+00
  2.635761e+01    1.149200e+00
  2.646874e+01    1.016946e+00
  2.657987e+01    9.514402e-01
  2.669100e+01    9.453346e-01
  2.680212e+01    9.162149e-01
  2.691325e+01    9.406003e-01
  2.702438e+01    1.029077e+00
  2.713551e+01    1.444795e+00
  2.724664e+01    2.515418e+00
  2.735777e+01    1.700074e+00
  2.746890e+01    1.091023e+00
  2.758003e+01    9.222814e-01
  2.769116e+01    8.565475e-01
  2.780229e+01    8.222275e-01
  2.791342e+01    8.227530e-01
  2.802454e+01    7.962496e-01
  2.813567e+01    8.090555e-01
  2.824680e+01    7.813514e-01
  2.835793e+01    7.952176e-01
  2.846906e+01    7.715099e-01
  2.858019e+01    7.684268e-01
  2.869132e+01    7.559991e-01
  2.880245e+01    7.625669e-01
  2.891358e+01    7.570152e-01
  2.902471e+01    7.460613e-01
  2.913583e+01    7.193800e-01
  2.924696e+01    7.620977e-01
  2.935809e+01    7.470673e-01
  2.946922e+01    7.233832e-01
  2.958035e+01    7.400348e-01
  2.969148e+01    7.403746e-01
  2.980261e+01    7.375333e-01
  2.991374e+01    7.096103e-01
  3.002487e+01    7.494967e-01
  3.013600e+01    7.369084e-01
  3.024712e+01    7.244519e-01
  3.035825e+01    7.173468e-01
  3.046938e+01    7.306358e-01
  3.058051e+01    7.131709e-01
  3.069164e+01    7.010333e-01
  3.080277e+01    7.275548e-01
  3.091390e+01    7.236786e-01
  3.102503e+01    7.179349e-01
  3.113616e+01    7.265209e-01
  3.124729e+01    7.472521e-01
  3.135841e+01    7.170823e-01
  3.146954e+01    7.689117e-01
  3.158067e+01    7.999942e-01
  3.169180e+01    8.852913e-01
  3.180293e+01    1.238196e+00
  3.191406e+01    2.273438e+00
  3.202519e+01    2.029644e+00
  3.213632e+01    1.097296e+00
  3.224745e+01    8.420460e-01
  3.235858e+01    7.673619e-01
  3.246970e+01    7.500851e-01
  3.254908e+01    7.577087e-01

File: 2024-07-27_002_Ru-CGO-ex_Activtation_ramp_000002_data_000046.dat
# == pyFAI calibration ==
# Distance Sample to Detector: 0.4 m
# PONI: 9.750e-02, 1.135e-01 m
# Rotations: -0.000175 0.000000 -0.000000 rad
#
# == Fit2d calibration ==
# Distance Sample-beamCenter: 400.000 mm
# Center: x=1514.000, y=1300.000 pix
# Tilt: 0.010 deg  TiltPlanRot: 0.010 deg
#
# Detector Detector	 Spline= None	 PixelSize= 7.500e-05, 7.500e-05 m
#    Detector has a mask: False
#    Detector has a dark current: False
#    detector has a flat field: False
#
# Wavelength: 6.888e-11 m
# Mask applied: user provided
# Dark current applied: False
# Flat field applied: False
# Polarization factor: 0.99
# Normalization factor: 1.0
# --> /home/myspot/data/2024_07_Rosario/Ru-CGO-ex/2024-07-27_002_Ru-CGO-ex_Activtation_ramp_000002_data_000046.dat
#       q_nm^-1             I
  2.003187e-02    0.000000e+00
  1.311609e-01    1.314008e-02
  2.422899e-01    4.957883e-02
  3.534189e-01    1.141921e-02
  4.645479e-01    5.661866e-02
  5.756770e-01    3.704751e-02
  6.868060e-01    4.898817e-02
  7.979350e-01    1.452606e-01
  9.090640e-01    6.477354e-01
  1.020193e+00    1.079412e+00
  1.131322e+00    1.372601e+00
  1.242451e+00    2.244854e+00
  1.353580e+00    2.486385e+00
  1.464709e+00    2.824560e+00
  1.575838e+00    2.970621e+00
  1.686967e+00    2.995375e+00
  1.798096e+00    2.764864e+00
  1.909225e+00    2.759599e+00
  2.020354e+00    2.748054e+00
  2.131483e+00    2.640218e+00
  2.242612e+00    2.741439e+00
  2.353741e+00    2.863623e+00
  2.464870e+00    2.836982e+00
  2.575999e+00    2.844626e+00
  2.687128e+00    2.809279e+00
  2.798257e+00    2.700177e+00
  2.909386e+00    2.905021e+00
  3.020515e+00    2.906897e+00
  3.131644e+00    2.978557e+00
  3.242773e+00    2.894019e+00
  3.353902e+00    2.930021e+00
  3.465031e+00    2.918839e+00
  3.576160e+00    3.030835e+00
  3.687289e+00    2.965554e+00
  3.798418e+00    3.040534e+00
  3.909547e+00    2.997247e+00
  4.020676e+00    2.957269e+00
  4.131806e+00    2.969187e+00
  4.242935e+00    3.040529e+00
  4.354064e+00    3.061910e+00
  4.465193e+00    3.045776e+00
  4.576322e+00    3.108699e+00
  4.687451e+00    2.993831e+00
  4.798580e+00    3.020173e+00
  4.909709e+00    3.225450e+00
  5.020838e+00    3.114782e+00
  5.131967e+00    3.188875e+00
  5.243096e+00    3.096571e+00
  5.354225e+00    3.095132e+00
  5.465354e+00    3.048259e+00
  5.576483e+00    3.044367e+00
  5.687612e+00    3.151717e+00
  5.798741e+00    3.115048e+00
  5.909870e+00    2.974876e+00
  6.020999e+00    3.047415e+00
  6.132128e+00    3.072904e+00
  6.243257e+00    2.981909e+00
  6.354386e+00    3.037576e+00
  6.465515e+00    3.037504e+00
  6.576644e+00    3.016763e+00
  6.687773e+00    3.077798e+00
  6.798902e+00    2.963448e+00
  6.910031e+00    3.007167e+00
  7.021160e+00    3.044451e+00
  7.132289e+00    2.980844e+00
  7.243418e+00    3.006093e+00
  7.354547e+00    2.959248e+00
  7.465676e+00    3.042306e+00
  7.576805e+00    2.953370e+00
  7.687934e+00    2.971110e+00
  7.799063e+00    2.942615e+00
  7.910192e+00    2.934717e+00
  8.021321e+00    2.950135e+00
  8.132450e+00    2.953814e+00
  8.243579e+00    2.957340e+00
  8.354708e+00    2.840126e+00
  8.465837e+00    2.908195e+00
  8.576966e+00    2.792158e+00
  8.688095e+00    2.838435e+00
  8.799224e+00    2.864645e+00
  8.910353e+00    2.799514e+00
  9.021482e+00    2.817230e+00
  9.132611e+00    2.830779e+00
  9.243740e+00    2.753159e+00
  9.354869e+00    2.738984e+00
  9.465998e+00    2.732100e+00
  9.577127e+00    2.789251e+00
  9.688256e+00    2.779117e+00
  9.799385e+00    2.682530e+00
  9.910514e+00    2.680958e+00
  1.002164e+01    2.658861e+00
  1.013277e+01    2.695324e+00
  1.024390e+01    2.683078e+00
  1.035503e+01    2.609971e+00
  1.046616e+01    2.612040e+00
  1.057729e+01    2.573691e+00
  1.068842e+01    2.524780e+00
  1.079955e+01    2.549789e+00
  1.091068e+01    2.517403e+00
  1.102180e+01    2.500172e+00
  1.113293e+01    2.476084e+00
  1.124406e+01    2.425709e+00
  1.135519e+01    2.429559e+00
  1.146632e+01    2.430495e+00
  1.157745e+01    2.394122e+00
  1.168858e+01    2.375696e+00
  1.179971e+01    2.368335e+00
  1.191084e+01    2.372172e+00
  1.202197e+01    2.292109e+00
  1.213309e+01    2.317804e+00
  1.224422e+01    2.337223e+00
  1.235535e+01    2.318933e+00
  1.246648e+01    2.357427e+00
  1.257761e+01    2.434011e+00
  1.268874e+01    2.457805e+00
  1.279987e+01    2.653350e+00
  1.291100e+01    3.279995e+00
  1.302213e+01    5.911490e+00
  1.313326e+01    1.502168e+01
  1.324438e+01    1.535358e+01
  1.335551e+01    5.172584e+00
  1.346664e+01    3.092030e+00
  1.357777e+01    2.558212e+00
  1.368890e+01    2.316130e+00
  1.380003e+01    2.164672e+00
  1.391116e+01    2.060161e+00
  1.402229e+01    2.111027e+00
  1.413342e+01    1.983377e+00
  1.424455e+01    2.007461e+00
  1.435568e+01    1.958789e+00
  1.446680e+01    1.957225e+00
  1.457793e+01    1.915498e+00
  1.468906e+01    1.883860e+00
  1.480019e+01    1.910946e+00
  1.491132e+01    1.969206e+00
  1.502245e+01    2.163162e+00
  1.513358e+01    3.247719e+00
  1.524471e+01    5.940856e+00
  1.535584e+01    4.713651e+00
  1.546697e+01    2.455375e+00
  1.557809e+01    1.937795e+00
  1.568922e+01    1.804723e+00
  1.580035e+01    1.728921e+00
  1.591148e+01    1.650506e+00
  1.602261e+01    1.635566e+00
  1.613374e+01    1.636718e+00
  1.624487e+01    1.550859e+00
  1.635600e+01    1.532896e+00
  1.646713e+01    1.511744e+00
  1.657826e+01    1.480700e+00
  1.668938e+01    1.497622e+00
  1.680051e+01    1.475774e+00
  1.691164e+01    1.454705e+00
  1.702277e+01    1.454823e+00
  1.713390e+01    1.392028e+00
  1.724503e+01    1.381241e+00
  1.735616e+01    1.377011e+00
  1.746729e+01    1.372082e+00
  1.757842e+01    1.410866e+00
  1.768955e+01    1.346807e+00
  1.780067e+01    1.318213e+00
  1.791180e+01    1.296197e+00
  1.802293e+01    1.327191e+00
  1.813406e+01    1.316613e+00
  1.824519e+01    1.307221e+00
  1.835632e+01    1.258937e+00
  1.846745e+01    1.297292e+00
  1.857858e+01    1.221721e+00
  1.868971e+01    1.241480e+00
  1.880084e+01    1.191208e+00
  1.891196e+01    1.217201e+00
  1.902309e+01    1.186184e+00
  1.913422e+01    1.196173e+00
  1.924535e+01    1.172250e+00
  1.935648e+01    1.187648e+00
  1.946761e+01    1.194500e+00
  1.957874e+01    1.158490e+00
  1.968987e+01    1.153788e+00
  1.980100e+01    1.137931e+00
  1.991213e+01    1.102421e+00
  2.002325e+01    1.116737e+00
  2.013438e+01    1.089073e+00
  2.024551e+01    1.121543e+00
  2.035664e+01    1.091264e+00
  2.046777e+01    1.082090e+00
  2.057890e+01    1.089143e+00
  2.069003e+01    1.080568e+00
  2.080116e+01    1.111516e+00
  2.091229e+01    1.095601e+00
  2.102342e+01    1.087406e+00
  2.113455e+01    1.085137e+00
  2.124567e+01    1.107069e+00
  2.135680e+01    1.173987e+00
  2.146793e+01    1.210331e+00
  2.157906e+01    1.446715e+00
  2.169019e+01    2.090798e+00
  2.180132e+01    4.906420e+00
  2.191245e+01    1.043768e+01
  2.202358e+01    5.528112e+00
  2.213471e+01    2.187413e+00
  2.224584e+01    1.444367e+00
  2.235696e+01    1.185379e+00
  2.246809e+01    1.071281e+00
  2.257922e+01    1.001892e+00
  2.269035e+01    9.652655e-01
  2.280148e+01    9.560391e-01
  2.291261e+01    9.082872e-01
  2.302374e+01    9.174999e-01
  2.313487e+01    8.949035e-01
  2.324600e+01    8.662233e-01
  2.335713e+01    8.470598e-01
  2.346825e+01    8.520713e-01
  2.357938e+01    8.589646e-01
  2.369051e+01    8.142599e-01
  2.380164e+01    8.279123e-01
  2.391277e+01    8.178865e-01
  2.402390e+01    7.704000e-01
  2.413503e+01    7.847493e-01
  2.424616e+01    8.022749e-01
  2.435729e+01    7.927271e-01
  2.446842e+01    7.903514e-01
  2.457954e+01    8.101873e-01
  2.469067e+01    7.958583e-01
  2.480180e+01    7.902198e-01
  2.491293e+01    7.807099e-01
  2.502406e+01    8.123402e-01
  2.513519e+01    8.319139e-01
  2.524632e+01    8.798419e-01
  2.535745e+01    8.906913e-01
  2.546858e+01    9.548450e-01
  2.557971e+01    1.048499e+00
  2.569083e+01    1.342470e+00
  2.580196e+01    2.249562e+00
  2.591309e+01    5.718807e+00
  2.602422e+01    8.425776e+00
  2.613535e+01    3.268888e+00
  2.624648e+01    1.595267e+00
  2.635761e+01    1.161370e+00
  2.646874e+01    9.890634e-01
  2.657987e+01    9.389120e-01
  2.669100e+01    9.379752e-01
  2.680212e+01    9.090571e-01
  2.691325e+01    9.203707e-01
  2.702438e+01    1.032939e+00
  2.713551e+01    1.444099e+00
  2.724664e+01    2.491011e+00
  2.735777e+01    1.664772e+00
  2.746890e+01    1.063750e+00
  2.758003e+01    8.829468e-01
  2.769116e+01    8.654147e-01
  2.780229e+01    8.648668e-01
  2.791342e+01    8.231748e-01
  2.802454e+01    7.972477e-01
  2.813567e+01    7.996603e-01
  2.824680e+01    7.893231e-01
  2.835793e+01    7.767583e-01
  2.846906e+01    7.621996e-01
  2.858019e+01    7.857314e-01
  2.869132e+01    7.649115e-01
  2.880245e+01    7.438451e-01
  2.891358e+01    7.629848e-01
  2.902471e+01    7.689302e-01
  2.913583e+01    7.349816e-01
  2.924696e+01    7.507232e-01
  2.935809e+01    7.485652e-01
  2.946922e+01    7.331733e-01
  2.958035e+01    7.239952e-01
  2.969148e+01    7.350841e-01
  2.980261e+01    7.234395e-01
  2.991374e+01    7.120606e-01
  3.002487e+01    7.329118e-01
  3.013600e+01    7.176135e-01
  3.024712e+01    7.054276e-01
  3.035825e+01    7.034259e-01
  3.046938e+01    7.158071e-01
  3.058051e+01    7.033001e-01
  3.069164e+01    7.197126e-01
  3.080277e+01    7.253029e-01
  3.091390e+01    7.148262e-01
  3.102503e+01    7.251741e-01
  3.113616e+01    7.329115e-01
  3.124729e+01    7.377654e-01
  3.135841e+01    7.559640e-01
  3.146954e+01    7.686444e-01
  3.158067e+01    8.039260e-01
  3.169180e+01    9.110041e-01
  3.180293e+01    1.228715e+00
  3.191406e+01    2.229749e+00
  3.202519e+01    1.984893e+00
  3.213632e+01    1.055140e+00
  3.224745e+01    8.272161e-01
  3.235858e+01    7.862630e-01
  3.246970e+01    7.472833e-01
  3.254908e+01    7.219399e-01