Folder: myspot_2024_07/XRD/Activation ramp (part 31)

File: 2024-07-27_002_Ru-CGO-ex_Activtation_ramp_000002_data_000144.dat
# == pyFAI calibration ==
# Distance Sample to Detector: 0.4 m
# PONI: 9.750e-02, 1.135e-01 m
# Rotations: -0.000175 0.000000 -0.000000 rad
#
# == Fit2d calibration ==
# Distance Sample-beamCenter: 400.000 mm
# Center: x=1514.000, y=1300.000 pix
# Tilt: 0.010 deg  TiltPlanRot: 0.010 deg
#
# Detector Detector	 Spline= None	 PixelSize= 7.500e-05, 7.500e-05 m
#    Detector has a mask: False
#    Detector has a dark current: False
#    detector has a flat field: False
#
# Wavelength: 6.888e-11 m
# Mask applied: user provided
# Dark current applied: False
# Flat field applied: False
# Polarization factor: 0.99
# Normalization factor: 1.0
# --> /home/myspot/data/2024_07_Rosario/Ru-CGO-ex/2024-07-27_002_Ru-CGO-ex_Activtation_ramp_000002_data_000144.dat
#       q_nm^-1             I
  2.003187e-02    2.227120e-02
  1.311609e-01    7.646564e-02
  2.422899e-01    2.862192e-02
  3.534189e-01    3.134416e-02
  4.645479e-01    4.190840e-02
  5.756770e-01    5.714002e-02
  6.868060e-01    4.662642e-02
  7.979350e-01    1.121211e-01
  9.090640e-01    5.332336e-01
  1.020193e+00    1.106902e+00
  1.131322e+00    1.385660e+00
  1.242451e+00    2.142323e+00
  1.353580e+00    2.665226e+00
  1.464709e+00    2.753197e+00
  1.575838e+00    2.867708e+00
  1.686967e+00    2.736140e+00
  1.798096e+00    2.790645e+00
  1.909225e+00    2.772820e+00
  2.020354e+00    2.767296e+00
  2.131483e+00    2.656815e+00
  2.242612e+00    2.687231e+00
  2.353741e+00    2.759862e+00
  2.464870e+00    2.625147e+00
  2.575999e+00    2.762620e+00
  2.687128e+00    2.835387e+00
  2.798257e+00    2.739018e+00
  2.909386e+00    2.807481e+00
  3.020515e+00    2.877566e+00
  3.131644e+00    2.964953e+00
  3.242773e+00    2.902818e+00
  3.353902e+00    2.893790e+00
  3.465031e+00    2.932635e+00
  3.576160e+00    2.861298e+00
  3.687289e+00    2.881251e+00
  3.798418e+00    2.948917e+00
  3.909547e+00    2.981995e+00
  4.020676e+00    2.977891e+00
  4.131806e+00    3.043039e+00
  4.242935e+00    3.057892e+00
  4.354064e+00    2.977249e+00
  4.465193e+00    3.010047e+00
  4.576322e+00    3.054784e+00
  4.687451e+00    3.122478e+00
  4.798580e+00    3.121275e+00
  4.909709e+00    3.118093e+00
  5.020838e+00    3.031592e+00
  5.131967e+00    3.134050e+00
  5.243096e+00    3.117169e+00
  5.354225e+00    3.086318e+00
  5.465354e+00    3.119318e+00
  5.576483e+00    3.125755e+00
  5.687612e+00    3.097005e+00
  5.798741e+00    3.052217e+00
  5.909870e+00    2.984225e+00
  6.020999e+00    2.911358e+00
  6.132128e+00    3.038955e+00
  6.243257e+00    3.004421e+00
  6.354386e+00    3.008427e+00
  6.465515e+00    3.108724e+00
  6.576644e+00    3.015556e+00
  6.687773e+00    3.022651e+00
  6.798902e+00    3.155437e+00
  6.910031e+00    3.035969e+00
  7.021160e+00    2.993123e+00
  7.132289e+00    2.928622e+00
  7.243418e+00    2.933558e+00
  7.354547e+00    2.966600e+00
  7.465676e+00    2.959778e+00
  7.576805e+00    2.975098e+00
  7.687934e+00    2.877474e+00
  7.799063e+00    2.934651e+00
  7.910192e+00    2.907515e+00
  8.021321e+00    2.895288e+00
  8.132450e+00    2.971296e+00
  8.243579e+00    2.999910e+00
  8.354708e+00    2.857804e+00
  8.465837e+00    2.866747e+00
  8.576966e+00    2.879431e+00
  8.688095e+00    2.858144e+00
  8.799224e+00    2.834550e+00
  8.910353e+00    2.863288e+00
  9.021482e+00    2.841992e+00
  9.132611e+00    2.742054e+00
  9.243740e+00    2.777632e+00
  9.354869e+00    2.757495e+00
  9.465998e+00    2.773755e+00
  9.577127e+00    2.691210e+00
  9.688256e+00    2.766277e+00
  9.799385e+00    2.712500e+00
  9.910514e+00    2.696266e+00
  1.002164e+01    2.680390e+00
  1.013277e+01    2.641040e+00
  1.024390e+01    2.586297e+00
  1.035503e+01    2.568532e+00
  1.046616e+01    2.588002e+00
  1.057729e+01    2.583161e+00
  1.068842e+01    2.571510e+00
  1.079955e+01    2.537801e+00
  1.091068e+01    2.477288e+00
  1.102180e+01    2.480381e+00
  1.113293e+01    2.461268e+00
  1.124406e+01    2.456936e+00
  1.135519e+01    2.387224e+00
  1.146632e+01    2.366951e+00
  1.157745e+01    2.367424e+00
  1.168858e+01    2.348946e+00
  1.179971e+01    2.340117e+00
  1.191084e+01    2.376553e+00
  1.202197e+01    2.321384e+00
  1.213309e+01    2.350791e+00
  1.224422e+01    2.331769e+00
  1.235535e+01    2.316278e+00
  1.246648e+01    2.352220e+00
  1.257761e+01    2.376147e+00
  1.268874e+01    2.450808e+00
  1.279987e+01    2.608854e+00
  1.291100e+01    3.270283e+00
  1.302213e+01    6.167492e+00
  1.313326e+01    1.455853e+01
  1.324438e+01    1.133913e+01
  1.335551e+01    4.222185e+00
  1.346664e+01    2.805879e+00
  1.357777e+01    2.427149e+00
  1.368890e+01    2.255642e+00
  1.380003e+01    2.134001e+00
  1.391116e+01    2.102002e+00
  1.402229e+01    2.064202e+00
  1.413342e+01    1.963352e+00
  1.424455e+01    1.977765e+00
  1.435568e+01    1.942768e+00
  1.446680e+01    1.900404e+00
  1.457793e+01    1.907581e+00
  1.468906e+01    1.900071e+00
  1.480019e+01    1.927109e+00
  1.491132e+01    1.974233e+00
  1.502245e+01    2.199644e+00
  1.513358e+01    3.431747e+00
  1.524471e+01    5.634410e+00
  1.535584e+01    3.693991e+00
  1.546697e+01    2.207016e+00
  1.557809e+01    1.833681e+00
  1.568922e+01    1.755182e+00
  1.580035e+01    1.678925e+00
  1.591148e+01    1.605206e+00
  1.602261e+01    1.594544e+00
  1.613374e+01    1.577251e+00
  1.624487e+01    1.557657e+00
  1.635600e+01    1.496299e+00
  1.646713e+01    1.551340e+00
  1.657826e+01    1.506772e+00
  1.668938e+01    1.465850e+00
  1.680051e+01    1.473150e+00
  1.691164e+01    1.443417e+00
  1.702277e+01    1.410776e+00
  1.713390e+01    1.419287e+00
  1.724503e+01    1.408124e+00
  1.735616e+01    1.381412e+00
  1.746729e+01    1.357082e+00
  1.757842e+01    1.325949e+00
  1.768955e+01    1.340934e+00
  1.780067e+01    1.355066e+00
  1.791180e+01    1.291833e+00
  1.802293e+01    1.306587e+00
  1.813406e+01    1.280597e+00
  1.824519e+01    1.274598e+00
  1.835632e+01    1.255739e+00
  1.846745e+01    1.262284e+00
  1.857858e+01    1.222749e+00
  1.868971e+01    1.203483e+00
  1.880084e+01    1.238590e+00
  1.891196e+01    1.205167e+00
  1.902309e+01    1.188096e+00
  1.913422e+01    1.188437e+00
  1.924535e+01    1.178415e+00
  1.935648e+01    1.174594e+00
  1.946761e+01    1.170327e+00
  1.957874e+01    1.134694e+00
  1.968987e+01    1.135071e+00
  1.980100e+01    1.134136e+00
  1.991213e+01    1.114584e+00
  2.002325e+01    1.102173e+00
  2.013438e+01    1.082676e+00
  2.024551e+01    1.087794e+00
  2.035664e+01    1.099387e+00
  2.046777e+01    1.075182e+00
  2.057890e+01    1.067502e+00
  2.069003e+01    1.071332e+00
  2.080116e+01    1.073687e+00
  2.091229e+01    1.088275e+00
  2.102342e+01    1.057531e+00
  2.113455e+01    1.098964e+00
  2.124567e+01    1.087657e+00
  2.135680e+01    1.137072e+00
  2.146793e+01    1.242402e+00
  2.157906e+01    1.457791e+00
  2.169019e+01    2.329558e+00
  2.180132e+01    5.550865e+00
  2.191245e+01    9.145701e+00
  2.202358e+01    3.760743e+00
  2.213471e+01    1.790157e+00
  2.224584e+01    1.282186e+00
  2.235696e+01    1.108071e+00
  2.246809e+01    1.023996e+00
  2.257922e+01    9.866385e-01
  2.269035e+01    9.592313e-01
  2.280148e+01    9.187433e-01
  2.291261e+01    8.882304e-01
  2.302374e+01    9.094285e-01
  2.313487e+01    8.812246e-01
  2.324600e+01    8.659877e-01
  2.335713e+01    8.607949e-01
  2.346825e+01    8.363804e-01
  2.357938e+01    8.361174e-01
  2.369051e+01    8.352410e-01
  2.380164e+01    7.891101e-01
  2.391277e+01    7.810137e-01
  2.402390e+01    8.005304e-01
  2.413503e+01    7.859986e-01
  2.424616e+01    7.544842e-01
  2.435729e+01    8.005784e-01
  2.446842e+01    7.978763e-01
  2.457954e+01    7.936069e-01
  2.469067e+01    7.891361e-01
  2.480180e+01    7.893293e-01
  2.491293e+01    7.951707e-01
  2.502406e+01    8.008828e-01
  2.513519e+01    8.047429e-01
  2.524632e+01    8.487281e-01
  2.535745e+01    8.657601e-01
  2.546858e+01    9.319851e-01
  2.557971e+01    1.074826e+00
  2.569083e+01    1.387070e+00
  2.580196e+01    2.609933e+00
  2.591309e+01    6.295624e+00
  2.602422e+01    5.918870e+00
  2.613535e+01    2.216610e+00
  2.624648e+01    1.306107e+00
  2.635761e+01    1.028156e+00
  2.646874e+01    9.543403e-01
  2.657987e+01    8.999965e-01
  2.669100e+01    8.966754e-01
  2.680212e+01    9.170173e-01
  2.691325e+01    9.082760e-01
  2.702438e+01    1.057897e+00
  2.713551e+01    1.615892e+00
  2.724664e+01    2.151729e+00
  2.735777e+01    1.275480e+00
  2.746890e+01    9.609134e-01
  2.758003e+01    8.399293e-01
  2.769116e+01    8.413691e-01
  2.780229e+01    7.892806e-01
  2.791342e+01    7.794361e-01
  2.802454e+01    7.880573e-01
  2.813567e+01    7.695940e-01
  2.824680e+01    7.751507e-01
  2.835793e+01    7.591962e-01
  2.846906e+01    7.534832e-01
  2.858019e+01    7.596714e-01
  2.869132e+01    7.536740e-01
  2.880245e+01    7.435683e-01
  2.891358e+01    7.219353e-01
  2.902471e+01    7.327355e-01
  2.913583e+01    7.408209e-01
  2.924696e+01    7.370343e-01
  2.935809e+01    7.416877e-01
  2.946922e+01    7.119083e-01
  2.958035e+01    7.256294e-01
  2.969148e+01    7.135866e-01
  2.980261e+01    7.263640e-01
  2.991374e+01    7.251805e-01
  3.002487e+01    7.234129e-01
  3.013600e+01    7.145367e-01
  3.024712e+01    6.848855e-01
  3.035825e+01    7.078599e-01
  3.046938e+01    7.080406e-01
  3.058051e+01    7.237979e-01
  3.069164e+01    6.891340e-01
  3.080277e+01    6.866889e-01
  3.091390e+01    7.038833e-01
  3.102503e+01    7.202784e-01
  3.113616e+01    6.995161e-01
  3.124729e+01    7.244095e-01
  3.135841e+01    7.330505e-01
  3.146954e+01    7.639140e-01
  3.158067e+01    7.909746e-01
  3.169180e+01    9.440106e-01
  3.180293e+01    1.380753e+00
  3.191406e+01    2.217637e+00
  3.202519e+01    1.358619e+00
  3.213632e+01    9.045293e-01
  3.224745e+01    7.612401e-01
  3.235858e+01    7.299908e-01
  3.246970e+01    7.312960e-01
  3.254908e+01    7.322695e-01

File: 2024-07-27_002_Ru-CGO-ex_Activtation_ramp_000002_data_000145.dat
# == pyFAI calibration ==
# Distance Sample to Detector: 0.4 m
# PONI: 9.750e-02, 1.135e-01 m
# Rotations: -0.000175 0.000000 -0.000000 rad
#
# == Fit2d calibration ==
# Distance Sample-beamCenter: 400.000 mm
# Center: x=1514.000, y=1300.000 pix
# Tilt: 0.010 deg  TiltPlanRot: 0.010 deg
#
# Detector Detector	 Spline= None	 PixelSize= 7.500e-05, 7.500e-05 m
#    Detector has a mask: False
#    Detector has a dark current: False
#    detector has a flat field: False
#
# Wavelength: 6.888e-11 m
# Mask applied: user provided
# Dark current applied: False
# Flat field applied: False
# Polarization factor: 0.99
# Normalization factor: 1.0
# --> /home/myspot/data/2024_07_Rosario/Ru-CGO-ex/2024-07-27_002_Ru-CGO-ex_Activtation_ramp_000002_data_000145.dat
#       q_nm^-1             I
  2.003187e-02    0.000000e+00
  1.311609e-01    1.252967e-02
  2.422899e-01    4.280229e-02
  3.534189e-01    5.557901e-02
  4.645479e-01    2.789045e-02
  5.756770e-01    3.350477e-02
  6.868060e-01    1.428793e-02
  7.979350e-01    1.843486e-01
  9.090640e-01    6.090485e-01
  1.020193e+00    1.044930e+00
  1.131322e+00    1.351878e+00
  1.242451e+00    2.211514e+00
  1.353580e+00    2.407344e+00
  1.464709e+00    2.735106e+00
  1.575838e+00    2.999082e+00
  1.686967e+00    2.694483e+00
  1.798096e+00    2.677654e+00
  1.909225e+00    2.748122e+00
  2.020354e+00    2.700220e+00
  2.131483e+00    2.755521e+00
  2.242612e+00    2.741236e+00
  2.353741e+00    2.729431e+00
  2.464870e+00    2.723455e+00
  2.575999e+00    2.817403e+00
  2.687128e+00    2.783303e+00
  2.798257e+00    2.807179e+00
  2.909386e+00    2.909034e+00
  3.020515e+00    2.765876e+00
  3.131644e+00    2.847565e+00
  3.242773e+00    2.931203e+00
  3.353902e+00    2.950720e+00
  3.465031e+00    2.866897e+00
  3.576160e+00    2.923676e+00
  3.687289e+00    2.990239e+00
  3.798418e+00    2.948641e+00
  3.909547e+00    2.906816e+00
  4.020676e+00    2.967013e+00
  4.131806e+00    3.062152e+00
  4.242935e+00    3.083458e+00
  4.354064e+00    3.144454e+00
  4.465193e+00    3.082782e+00
  4.576322e+00    3.041411e+00
  4.687451e+00    3.084712e+00
  4.798580e+00    3.077011e+00
  4.909709e+00    3.095956e+00
  5.020838e+00    3.086761e+00
  5.131967e+00    3.103204e+00
  5.243096e+00    3.177407e+00
  5.354225e+00    3.107980e+00
  5.465354e+00    3.128556e+00
  5.576483e+00    3.192871e+00
  5.687612e+00    3.100810e+00
  5.798741e+00    2.967956e+00
  5.909870e+00    3.055928e+00
  6.020999e+00    3.010455e+00
  6.132128e+00    3.034384e+00
  6.243257e+00    3.008776e+00
  6.354386e+00    3.040616e+00
  6.465515e+00    3.036662e+00
  6.576644e+00    2.996255e+00
  6.687773e+00    3.040505e+00
  6.798902e+00    3.008938e+00
  6.910031e+00    3.067626e+00
  7.021160e+00    3.040795e+00
  7.132289e+00    3.015481e+00
  7.243418e+00    2.983970e+00
  7.354547e+00    2.969724e+00
  7.465676e+00    2.983332e+00
  7.576805e+00    2.989652e+00
  7.687934e+00    2.916529e+00
  7.799063e+00    2.876427e+00
  7.910192e+00    3.014776e+00
  8.021321e+00    2.957403e+00
  8.132450e+00    2.955705e+00
  8.243579e+00    2.962679e+00
  8.354708e+00    2.869403e+00
  8.465837e+00    2.841558e+00
  8.576966e+00    2.852823e+00
  8.688095e+00    2.873599e+00
  8.799224e+00    2.840394e+00
  8.910353e+00    2.779493e+00
  9.021482e+00    2.855179e+00
  9.132611e+00    2.757617e+00
  9.243740e+00    2.776556e+00
  9.354869e+00    2.775580e+00
  9.465998e+00    2.759417e+00
  9.577127e+00    2.731099e+00
  9.688256e+00    2.753393e+00
  9.799385e+00    2.700981e+00
  9.910514e+00    2.652832e+00
  1.002164e+01    2.673796e+00
  1.013277e+01    2.683756e+00
  1.024390e+01    2.584719e+00
  1.035503e+01    2.584503e+00
  1.046616e+01    2.609110e+00
  1.057729e+01    2.599035e+00
  1.068842e+01    2.551614e+00
  1.079955e+01    2.530285e+00
  1.091068e+01    2.538249e+00
  1.102180e+01    2.482191e+00
  1.113293e+01    2.429721e+00
  1.124406e+01    2.498230e+00
  1.135519e+01    2.453735e+00
  1.146632e+01    2.437421e+00
  1.157745e+01    2.378370e+00
  1.168858e+01    2.395958e+00
  1.179971e+01    2.350822e+00
  1.191084e+01    2.366015e+00
  1.202197e+01    2.335193e+00
  1.213309e+01    2.303943e+00
  1.224422e+01    2.335265e+00
  1.235535e+01    2.333283e+00
  1.246648e+01    2.312345e+00
  1.257761e+01    2.364168e+00
  1.268874e+01    2.467945e+00
  1.279987e+01    2.637362e+00
  1.291100e+01    3.293911e+00
  1.302213e+01    6.207527e+00
  1.313326e+01    1.448487e+01
  1.324438e+01    1.145452e+01
  1.335551e+01    4.264519e+00
  1.346664e+01    2.828806e+00
  1.357777e+01    2.427768e+00
  1.368890e+01    2.228800e+00
  1.380003e+01    2.120287e+00
  1.391116e+01    2.063672e+00
  1.402229e+01    2.021155e+00
  1.413342e+01    2.000803e+00
  1.424455e+01    1.947794e+00
  1.435568e+01    1.956407e+00
  1.446680e+01    1.910283e+00
  1.457793e+01    1.911841e+00
  1.468906e+01    1.894616e+00
  1.480019e+01    1.904175e+00
  1.491132e+01    2.000134e+00
  1.502245e+01    2.188573e+00
  1.513358e+01    3.448071e+00
  1.524471e+01    5.556691e+00
  1.535584e+01    3.808084e+00
  1.546697e+01    2.247165e+00
  1.557809e+01    1.891890e+00
  1.568922e+01    1.792979e+00
  1.580035e+01    1.676401e+00
  1.591148e+01    1.658713e+00
  1.602261e+01    1.583463e+00
  1.613374e+01    1.568081e+00
  1.624487e+01    1.590294e+00
  1.635600e+01    1.507696e+00
  1.646713e+01    1.526103e+00
  1.657826e+01    1.521377e+00
  1.668938e+01    1.480044e+00
  1.680051e+01    1.433522e+00
  1.691164e+01    1.452776e+00
  1.702277e+01    1.429633e+00
  1.713390e+01    1.441637e+00
  1.724503e+01    1.373053e+00
  1.735616e+01    1.385043e+00
  1.746729e+01    1.376508e+00
  1.757842e+01    1.360338e+00
  1.768955e+01    1.347623e+00
  1.780067e+01    1.321926e+00
  1.791180e+01    1.284490e+00
  1.802293e+01    1.279470e+00
  1.813406e+01    1.291758e+00
  1.824519e+01    1.286265e+00
  1.835632e+01    1.263315e+00
  1.846745e+01    1.268417e+00
  1.857858e+01    1.254223e+00
  1.868971e+01    1.234481e+00
  1.880084e+01    1.236037e+00
  1.891196e+01    1.206131e+00
  1.902309e+01    1.182162e+00
  1.913422e+01    1.173691e+00
  1.924535e+01    1.200414e+00
  1.935648e+01    1.173140e+00
  1.946761e+01    1.165979e+00
  1.957874e+01    1.142678e+00
  1.968987e+01    1.147637e+00
  1.980100e+01    1.145478e+00
  1.991213e+01    1.126667e+00
  2.002325e+01    1.139196e+00
  2.013438e+01    1.093545e+00
  2.024551e+01    1.081133e+00
  2.035664e+01    1.080034e+00
  2.046777e+01    1.080290e+00
  2.057890e+01    1.098325e+00
  2.069003e+01    1.073452e+00
  2.080116e+01    1.086421e+00
  2.091229e+01    1.074896e+00
  2.102342e+01    1.058130e+00
  2.113455e+01    1.075313e+00
  2.124567e+01    1.115373e+00
  2.135680e+01    1.140796e+00
  2.146793e+01    1.210778e+00
  2.157906e+01    1.457486e+00
  2.169019e+01    2.276331e+00
  2.180132e+01    5.524171e+00
  2.191245e+01    9.209541e+00
  2.202358e+01    3.777464e+00
  2.213471e+01    1.767871e+00
  2.224584e+01    1.305763e+00
  2.235696e+01    1.094035e+00
  2.246809e+01    1.016799e+00
  2.257922e+01    9.809136e-01
  2.269035e+01    9.442866e-01
  2.280148e+01    9.292756e-01
  2.291261e+01    9.092516e-01
  2.302374e+01    8.963498e-01
  2.313487e+01    8.941907e-01
  2.324600e+01    8.638433e-01
  2.335713e+01    8.640981e-01
  2.346825e+01    8.353118e-01
  2.357938e+01    8.328130e-01
  2.369051e+01    8.090441e-01
  2.380164e+01    8.081120e-01
  2.391277e+01    7.911837e-01
  2.402390e+01    7.803447e-01
  2.413503e+01    7.964578e-01
  2.424616e+01    7.762725e-01
  2.435729e+01    7.830352e-01
  2.446842e+01    7.897753e-01
  2.457954e+01    7.847700e-01
  2.469067e+01    7.944230e-01
  2.480180e+01    7.940755e-01
  2.491293e+01    7.888855e-01
  2.502406e+01    7.987466e-01
  2.513519e+01    8.085204e-01
  2.524632e+01    8.383758e-01
  2.535745e+01    8.663757e-01
  2.546858e+01    9.579499e-01
  2.557971e+01    1.069852e+00
  2.569083e+01    1.413133e+00
  2.580196e+01    2.658768e+00
  2.591309e+01    6.259818e+00
  2.602422e+01    5.976512e+00
  2.613535e+01    2.205012e+00
  2.624648e+01    1.313295e+00
  2.635761e+01    1.013310e+00
  2.646874e+01    9.518992e-01
  2.657987e+01    8.980009e-01
  2.669100e+01    8.844519e-01
  2.680212e+01    8.713040e-01
  2.691325e+01    9.247109e-01
  2.702438e+01    1.042789e+00
  2.713551e+01    1.588874e+00
  2.724664e+01    2.181023e+00
  2.735777e+01    1.262843e+00
  2.746890e+01    9.348978e-01
  2.758003e+01    8.683195e-01
  2.769116e+01    8.205819e-01
  2.780229e+01    8.182918e-01
  2.791342e+01    7.866410e-01
  2.802454e+01    8.012301e-01
  2.813567e+01    7.712885e-01
  2.824680e+01    7.653252e-01
  2.835793e+01    7.727183e-01
  2.846906e+01    7.456195e-01
  2.858019e+01    7.422636e-01
  2.869132e+01    7.738605e-01
  2.880245e+01    7.598608e-01
  2.891358e+01    7.122440e-01
  2.902471e+01    7.634103e-01
  2.913583e+01    7.302092e-01
  2.924696e+01    7.487357e-01
  2.935809e+01    7.303422e-01
  2.946922e+01    7.417344e-01
  2.958035e+01    7.179419e-01
  2.969148e+01    7.265850e-01
  2.980261e+01    7.046804e-01
  2.991374e+01    7.200240e-01
  3.002487e+01    7.330019e-01
  3.013600e+01    7.230943e-01
  3.024712e+01    7.023064e-01
  3.035825e+01    7.111857e-01
  3.046938e+01    7.071723e-01
  3.058051e+01    7.284790e-01
  3.069164e+01    7.032043e-01
  3.080277e+01    6.991232e-01
  3.091390e+01    6.880547e-01
  3.102503e+01    7.133196e-01
  3.113616e+01    7.308512e-01
  3.124729e+01    7.212870e-01
  3.135841e+01    7.088995e-01
  3.146954e+01    7.305532e-01
  3.158067e+01    7.776328e-01
  3.169180e+01    9.236871e-01
  3.180293e+01    1.361923e+00
  3.191406e+01    2.214158e+00
  3.202519e+01    1.404317e+00
  3.213632e+01    8.838113e-01
  3.224745e+01    7.713916e-01
  3.235858e+01    7.560801e-01
  3.246970e+01    7.056405e-01
  3.254908e+01    7.189133e-01