Folder: myspot_2024_07/XRD/Activation ramp (part 35)

File: 2024-07-27_002_Ru-CGO-ex_Activtation_ramp_000002_data_000154.dat
# == pyFAI calibration ==
# Distance Sample to Detector: 0.4 m
# PONI: 9.750e-02, 1.135e-01 m
# Rotations: -0.000175 0.000000 -0.000000 rad
#
# == Fit2d calibration ==
# Distance Sample-beamCenter: 400.000 mm
# Center: x=1514.000, y=1300.000 pix
# Tilt: 0.010 deg  TiltPlanRot: 0.010 deg
#
# Detector Detector	 Spline= None	 PixelSize= 7.500e-05, 7.500e-05 m
#    Detector has a mask: False
#    Detector has a dark current: False
#    detector has a flat field: False
#
# Wavelength: 6.888e-11 m
# Mask applied: user provided
# Dark current applied: False
# Flat field applied: False
# Polarization factor: 0.99
# Normalization factor: 1.0
# --> /home/myspot/data/2024_07_Rosario/Ru-CGO-ex/2024-07-27_002_Ru-CGO-ex_Activtation_ramp_000002_data_000154.dat
#       q_nm^-1             I
  2.003187e-02    2.227120e-02
  1.311609e-01    1.142281e-01
  2.422899e-01    5.875355e-02
  3.534189e-01    4.061915e-02
  4.645479e-01    4.700249e-02
  5.756770e-01    3.458580e-02
  6.868060e-01    1.827431e-02
  7.979350e-01    1.121118e-01
  9.090640e-01    4.743785e-01
  1.020193e+00    1.122795e+00
  1.131322e+00    1.435623e+00
  1.242451e+00    2.296623e+00
  1.353580e+00    2.586318e+00
  1.464709e+00    2.744359e+00
  1.575838e+00    2.986144e+00
  1.686967e+00    2.803442e+00
  1.798096e+00    2.762560e+00
  1.909225e+00    2.557247e+00
  2.020354e+00    2.711943e+00
  2.131483e+00    2.664344e+00
  2.242612e+00    2.726119e+00
  2.353741e+00    2.685318e+00
  2.464870e+00    2.823123e+00
  2.575999e+00    2.759033e+00
  2.687128e+00    2.901270e+00
  2.798257e+00    2.835292e+00
  2.909386e+00    2.861949e+00
  3.020515e+00    2.996846e+00
  3.131644e+00    2.953103e+00
  3.242773e+00    2.912490e+00
  3.353902e+00    2.984338e+00
  3.465031e+00    2.995557e+00
  3.576160e+00    2.965442e+00
  3.687289e+00    2.896091e+00
  3.798418e+00    2.973317e+00
  3.909547e+00    3.046553e+00
  4.020676e+00    3.005934e+00
  4.131806e+00    2.958033e+00
  4.242935e+00    3.101752e+00
  4.354064e+00    3.122154e+00
  4.465193e+00    3.059962e+00
  4.576322e+00    3.040662e+00
  4.687451e+00    3.071378e+00
  4.798580e+00    3.126330e+00
  4.909709e+00    3.136894e+00
  5.020838e+00    3.166806e+00
  5.131967e+00    3.163908e+00
  5.243096e+00    3.110909e+00
  5.354225e+00    3.128360e+00
  5.465354e+00    3.066576e+00
  5.576483e+00    3.085892e+00
  5.687612e+00    3.015158e+00
  5.798741e+00    3.090378e+00
  5.909870e+00    3.089568e+00
  6.020999e+00    2.932985e+00
  6.132128e+00    3.146931e+00
  6.243257e+00    2.999535e+00
  6.354386e+00    3.062922e+00
  6.465515e+00    3.008651e+00
  6.576644e+00    3.011557e+00
  6.687773e+00    3.078041e+00
  6.798902e+00    3.026439e+00
  6.910031e+00    3.038689e+00
  7.021160e+00    3.027703e+00
  7.132289e+00    3.011315e+00
  7.243418e+00    3.044671e+00
  7.354547e+00    3.011535e+00
  7.465676e+00    3.008281e+00
  7.576805e+00    3.034838e+00
  7.687934e+00    2.943919e+00
  7.799063e+00    3.009009e+00
  7.910192e+00    2.980209e+00
  8.021321e+00    2.931863e+00
  8.132450e+00    2.947194e+00
  8.243579e+00    3.026023e+00
  8.354708e+00    2.991783e+00
  8.465837e+00    2.942484e+00
  8.576966e+00    2.889510e+00
  8.688095e+00    2.860204e+00
  8.799224e+00    2.872930e+00
  8.910353e+00    2.799757e+00
  9.021482e+00    2.790943e+00
  9.132611e+00    2.828241e+00
  9.243740e+00    2.796314e+00
  9.354869e+00    2.814249e+00
  9.465998e+00    2.782515e+00
  9.577127e+00    2.758782e+00
  9.688256e+00    2.749498e+00
  9.799385e+00    2.714760e+00
  9.910514e+00    2.760992e+00
  1.002164e+01    2.709800e+00
  1.013277e+01    2.649834e+00
  1.024390e+01    2.647342e+00
  1.035503e+01    2.605030e+00
  1.046616e+01    2.650110e+00
  1.057729e+01    2.592211e+00
  1.068842e+01    2.627294e+00
  1.079955e+01    2.574986e+00
  1.091068e+01    2.518996e+00
  1.102180e+01    2.496211e+00
  1.113293e+01    2.473013e+00
  1.124406e+01    2.466035e+00
  1.135519e+01    2.431085e+00
  1.146632e+01    2.422639e+00
  1.157745e+01    2.346302e+00
  1.168858e+01    2.432536e+00
  1.179971e+01    2.376899e+00
  1.191084e+01    2.367857e+00
  1.202197e+01    2.353592e+00
  1.213309e+01    2.337725e+00
  1.224422e+01    2.359911e+00
  1.235535e+01    2.353381e+00
  1.246648e+01    2.340375e+00
  1.257761e+01    2.394612e+00
  1.268874e+01    2.480957e+00
  1.279987e+01    2.659482e+00
  1.291100e+01    3.342515e+00
  1.302213e+01    6.287815e+00
  1.313326e+01    1.456869e+01
  1.324438e+01    1.111875e+01
  1.335551e+01    4.234596e+00
  1.346664e+01    2.820820e+00
  1.357777e+01    2.420140e+00
  1.368890e+01    2.276887e+00
  1.380003e+01    2.191042e+00
  1.391116e+01    2.079915e+00
  1.402229e+01    2.018935e+00
  1.413342e+01    2.013307e+00
  1.424455e+01    2.015276e+00
  1.435568e+01    1.943148e+00
  1.446680e+01    1.988613e+00
  1.457793e+01    1.933831e+00
  1.468906e+01    1.936692e+00
  1.480019e+01    1.903539e+00
  1.491132e+01    1.964563e+00
  1.502245e+01    2.242025e+00
  1.513358e+01    3.502788e+00
  1.524471e+01    5.589967e+00
  1.535584e+01    3.604949e+00
  1.546697e+01    2.179744e+00
  1.557809e+01    1.906294e+00
  1.568922e+01    1.736979e+00
  1.580035e+01    1.685081e+00
  1.591148e+01    1.650543e+00
  1.602261e+01    1.596502e+00
  1.613374e+01    1.611560e+00
  1.624487e+01    1.598814e+00
  1.635600e+01    1.549971e+00
  1.646713e+01    1.555029e+00
  1.657826e+01    1.546892e+00
  1.668938e+01    1.495476e+00
  1.680051e+01    1.510947e+00
  1.691164e+01    1.450967e+00
  1.702277e+01    1.434648e+00
  1.713390e+01    1.394292e+00
  1.724503e+01    1.403355e+00
  1.735616e+01    1.389975e+00
  1.746729e+01    1.372311e+00
  1.757842e+01    1.371805e+00
  1.768955e+01    1.351605e+00
  1.780067e+01    1.348496e+00
  1.791180e+01    1.293172e+00
  1.802293e+01    1.313730e+00
  1.813406e+01    1.280935e+00
  1.824519e+01    1.296819e+00
  1.835632e+01    1.271026e+00
  1.846745e+01    1.228617e+00
  1.857858e+01    1.238537e+00
  1.868971e+01    1.258924e+00
  1.880084e+01    1.229743e+00
  1.891196e+01    1.194165e+00
  1.902309e+01    1.210697e+00
  1.913422e+01    1.189371e+00
  1.924535e+01    1.196185e+00
  1.935648e+01    1.172028e+00
  1.946761e+01    1.173427e+00
  1.957874e+01    1.149926e+00
  1.968987e+01    1.175519e+00
  1.980100e+01    1.139387e+00
  1.991213e+01    1.112959e+00
  2.002325e+01    1.134337e+00
  2.013438e+01    1.131452e+00
  2.024551e+01    1.128942e+00
  2.035664e+01    1.079567e+00
  2.046777e+01    1.079125e+00
  2.057890e+01    1.098471e+00
  2.069003e+01    1.084454e+00
  2.080116e+01    1.100636e+00
  2.091229e+01    1.095007e+00
  2.102342e+01    1.098381e+00
  2.113455e+01    1.096431e+00
  2.124567e+01    1.108273e+00
  2.135680e+01    1.167715e+00
  2.146793e+01    1.222718e+00
  2.157906e+01    1.479507e+00
  2.169019e+01    2.400999e+00
  2.180132e+01    5.675153e+00
  2.191245e+01    8.994098e+00
  2.202358e+01    3.603582e+00
  2.213471e+01    1.736045e+00
  2.224584e+01    1.288627e+00
  2.235696e+01    1.099174e+00
  2.246809e+01    1.055011e+00
  2.257922e+01    1.003886e+00
  2.269035e+01    9.674003e-01
  2.280148e+01    9.320398e-01
  2.291261e+01    9.134635e-01
  2.302374e+01    8.936164e-01
  2.313487e+01    8.668049e-01
  2.324600e+01    9.039899e-01
  2.335713e+01    8.596723e-01
  2.346825e+01    8.554368e-01
  2.357938e+01    8.428130e-01
  2.369051e+01    8.136138e-01
  2.380164e+01    8.321683e-01
  2.391277e+01    7.930084e-01
  2.402390e+01    7.909433e-01
  2.413503e+01    7.782936e-01
  2.424616e+01    7.558436e-01
  2.435729e+01    8.052582e-01
  2.446842e+01    8.073789e-01
  2.457954e+01    7.925395e-01
  2.469067e+01    7.838392e-01
  2.480180e+01    8.070475e-01
  2.491293e+01    7.926053e-01
  2.502406e+01    7.882215e-01
  2.513519e+01    8.175860e-01
  2.524632e+01    8.316650e-01
  2.535745e+01    8.741556e-01
  2.546858e+01    9.324789e-01
  2.557971e+01    1.066908e+00
  2.569083e+01    1.435116e+00
  2.580196e+01    2.710172e+00
  2.591309e+01    6.368264e+00
  2.602422e+01    5.641869e+00
  2.613535e+01    2.145111e+00
  2.624648e+01    1.254464e+00
  2.635761e+01    1.039048e+00
  2.646874e+01    9.499036e-01
  2.657987e+01    9.120770e-01
  2.669100e+01    9.025398e-01
  2.680212e+01    8.941401e-01
  2.691325e+01    9.009504e-01
  2.702438e+01    1.078620e+00
  2.713551e+01    1.673614e+00
  2.724664e+01    2.144698e+00
  2.735777e+01    1.264324e+00
  2.746890e+01    9.350947e-01
  2.758003e+01    8.776941e-01
  2.769116e+01    8.283065e-01
  2.780229e+01    8.126935e-01
  2.791342e+01    7.771319e-01
  2.802454e+01    7.561050e-01
  2.813567e+01    7.765973e-01
  2.824680e+01    7.563577e-01
  2.835793e+01    7.686923e-01
  2.846906e+01    7.700666e-01
  2.858019e+01    7.499575e-01
  2.869132e+01    7.331108e-01
  2.880245e+01    7.509285e-01
  2.891358e+01    7.343329e-01
  2.902471e+01    7.267500e-01
  2.913583e+01    7.490438e-01
  2.924696e+01    7.300198e-01
  2.935809e+01    7.352043e-01
  2.946922e+01    7.300788e-01
  2.958035e+01    7.121235e-01
  2.969148e+01    7.136852e-01
  2.980261e+01    7.222095e-01
  2.991374e+01    7.168010e-01
  3.002487e+01    7.249731e-01
  3.013600e+01    7.198159e-01
  3.024712e+01    7.064528e-01
  3.035825e+01    7.100201e-01
  3.046938e+01    7.115280e-01
  3.058051e+01    7.223587e-01
  3.069164e+01    6.915928e-01
  3.080277e+01    7.228310e-01
  3.091390e+01    7.187796e-01
  3.102503e+01    7.192174e-01
  3.113616e+01    7.011145e-01
  3.124729e+01    7.502033e-01
  3.135841e+01    7.381688e-01
  3.146954e+01    7.447256e-01
  3.158067e+01    8.199738e-01
  3.169180e+01    9.474773e-01
  3.180293e+01    1.429964e+00
  3.191406e+01    2.208931e+00
  3.202519e+01    1.313366e+00
  3.213632e+01    8.810116e-01
  3.224745e+01    7.578313e-01
  3.235858e+01    7.161933e-01
  3.246970e+01    7.342982e-01
  3.254908e+01    7.170488e-01

File: 2024-07-27_002_Ru-CGO-ex_Activtation_ramp_000002_data_000158.dat
# == pyFAI calibration ==
# Distance Sample to Detector: 0.4 m
# PONI: 9.750e-02, 1.135e-01 m
# Rotations: -0.000175 0.000000 -0.000000 rad
#
# == Fit2d calibration ==
# Distance Sample-beamCenter: 400.000 mm
# Center: x=1514.000, y=1300.000 pix
# Tilt: 0.010 deg  TiltPlanRot: 0.010 deg
#
# Detector Detector	 Spline= None	 PixelSize= 7.500e-05, 7.500e-05 m
#    Detector has a mask: False
#    Detector has a dark current: False
#    detector has a flat field: False
#
# Wavelength: 6.888e-11 m
# Mask applied: user provided
# Dark current applied: False
# Flat field applied: False
# Polarization factor: 0.99
# Normalization factor: 1.0
# --> /home/myspot/data/2024_07_Rosario/Ru-CGO-ex/2024-07-27_002_Ru-CGO-ex_Activtation_ramp_000002_data_000158.dat
#       q_nm^-1             I
  2.003187e-02    2.849293e-01
  1.311609e-01    1.873366e-02
  2.422899e-01    2.647253e-02
  3.534189e-01    5.156047e-02
  4.645479e-01    3.033686e-02
  5.756770e-01    2.794146e-02
  6.868060e-01    2.163619e-02
  7.979350e-01    1.322504e-01
  9.090640e-01    5.684960e-01
  1.020193e+00    1.103946e+00
  1.131322e+00    1.419717e+00
  1.242451e+00    2.340128e+00
  1.353580e+00    2.523646e+00
  1.464709e+00    2.801675e+00
  1.575838e+00    2.887109e+00
  1.686967e+00    2.733947e+00
  1.798096e+00    2.773212e+00
  1.909225e+00    2.624671e+00
  2.020354e+00    2.611879e+00
  2.131483e+00    2.709956e+00
  2.242612e+00    2.708863e+00
  2.353741e+00    2.810828e+00
  2.464870e+00    2.720476e+00
  2.575999e+00    2.809185e+00
  2.687128e+00    2.867710e+00
  2.798257e+00    2.784606e+00
  2.909386e+00    2.856190e+00
  3.020515e+00    2.963586e+00
  3.131644e+00    2.840429e+00
  3.242773e+00    2.815762e+00
  3.353902e+00    2.952855e+00
  3.465031e+00    2.964912e+00
  3.576160e+00    3.058187e+00
  3.687289e+00    2.992401e+00
  3.798418e+00    3.027733e+00
  3.909547e+00    3.014196e+00
  4.020676e+00    3.118290e+00
  4.131806e+00    3.051899e+00
  4.242935e+00    3.093399e+00
  4.354064e+00    3.041878e+00
  4.465193e+00    3.042009e+00
  4.576322e+00    3.064843e+00
  4.687451e+00    3.181920e+00
  4.798580e+00    3.109051e+00
  4.909709e+00    3.176497e+00
  5.020838e+00    3.060683e+00
  5.131967e+00    3.142257e+00
  5.243096e+00    3.153863e+00
  5.354225e+00    3.143376e+00
  5.465354e+00    3.147362e+00
  5.576483e+00    3.055051e+00
  5.687612e+00    3.058913e+00
  5.798741e+00    3.100689e+00
  5.909870e+00    3.051732e+00
  6.020999e+00    3.037779e+00
  6.132128e+00    3.105648e+00
  6.243257e+00    3.055624e+00
  6.354386e+00    3.031363e+00
  6.465515e+00    3.015204e+00
  6.576644e+00    3.072502e+00
  6.687773e+00    3.127176e+00
  6.798902e+00    3.002880e+00
  6.910031e+00    3.075761e+00
  7.021160e+00    3.009075e+00
  7.132289e+00    3.066904e+00
  7.243418e+00    3.004804e+00
  7.354547e+00    2.938002e+00
  7.465676e+00    2.964531e+00
  7.576805e+00    2.988683e+00
  7.687934e+00    2.929650e+00
  7.799063e+00    3.016429e+00
  7.910192e+00    2.967458e+00
  8.021321e+00    2.987399e+00
  8.132450e+00    2.966638e+00
  8.243579e+00    2.920717e+00
  8.354708e+00    2.948547e+00
  8.465837e+00    2.891282e+00
  8.576966e+00    2.844335e+00
  8.688095e+00    2.848035e+00
  8.799224e+00    2.780577e+00
  8.910353e+00    2.895063e+00
  9.021482e+00    2.824302e+00
  9.132611e+00    2.786140e+00
  9.243740e+00    2.749383e+00
  9.354869e+00    2.777403e+00
  9.465998e+00    2.754771e+00
  9.577127e+00    2.712736e+00
  9.688256e+00    2.724571e+00
  9.799385e+00    2.720364e+00
  9.910514e+00    2.687882e+00
  1.002164e+01    2.619205e+00
  1.013277e+01    2.666414e+00
  1.024390e+01    2.675146e+00
  1.035503e+01    2.597394e+00
  1.046616e+01    2.641636e+00
  1.057729e+01    2.621241e+00
  1.068842e+01    2.544859e+00
  1.079955e+01    2.508046e+00
  1.091068e+01    2.568879e+00
  1.102180e+01    2.465578e+00
  1.113293e+01    2.460510e+00
  1.124406e+01    2.478284e+00
  1.135519e+01    2.479161e+00
  1.146632e+01    2.408646e+00
  1.157745e+01    2.400054e+00
  1.168858e+01    2.421973e+00
  1.179971e+01    2.374632e+00
  1.191084e+01    2.378915e+00
  1.202197e+01    2.354563e+00
  1.213309e+01    2.336730e+00
  1.224422e+01    2.334675e+00
  1.235535e+01    2.305067e+00
  1.246648e+01    2.342296e+00
  1.257761e+01    2.393831e+00
  1.268874e+01    2.441216e+00
  1.279987e+01    2.692186e+00
  1.291100e+01    3.339943e+00
  1.302213e+01    6.368163e+00
  1.313326e+01    1.458605e+01
  1.324438e+01    1.079034e+01
  1.335551e+01    4.208511e+00
  1.346664e+01    2.819217e+00
  1.357777e+01    2.413052e+00
  1.368890e+01    2.262523e+00
  1.380003e+01    2.158069e+00
  1.391116e+01    2.100347e+00
  1.402229e+01    2.030232e+00
  1.413342e+01    2.043525e+00
  1.424455e+01    1.986959e+00
  1.435568e+01    1.962921e+00
  1.446680e+01    1.969770e+00
  1.457793e+01    1.949903e+00
  1.468906e+01    1.908785e+00
  1.480019e+01    1.878893e+00
  1.491132e+01    2.009862e+00
  1.502245e+01    2.243695e+00
  1.513358e+01    3.561710e+00
  1.524471e+01    5.546500e+00
  1.535584e+01    3.572522e+00
  1.546697e+01    2.176349e+00
  1.557809e+01    1.821082e+00
  1.568922e+01    1.761380e+00
  1.580035e+01    1.684811e+00
  1.591148e+01    1.633195e+00
  1.602261e+01    1.578672e+00
  1.613374e+01    1.585376e+00
  1.624487e+01    1.598521e+00
  1.635600e+01    1.541322e+00
  1.646713e+01    1.523041e+00
  1.657826e+01    1.494625e+00
  1.668938e+01    1.504987e+00
  1.680051e+01    1.472723e+00
  1.691164e+01    1.464994e+00
  1.702277e+01    1.445205e+00
  1.713390e+01    1.420686e+00
  1.724503e+01    1.402349e+00
  1.735616e+01    1.415926e+00
  1.746729e+01    1.372213e+00
  1.757842e+01    1.394503e+00
  1.768955e+01    1.361558e+00
  1.780067e+01    1.348274e+00
  1.791180e+01    1.338509e+00
  1.802293e+01    1.318104e+00
  1.813406e+01    1.289511e+00
  1.824519e+01    1.280600e+00
  1.835632e+01    1.272903e+00
  1.846745e+01    1.257688e+00
  1.857858e+01    1.259133e+00
  1.868971e+01    1.230615e+00
  1.880084e+01    1.195641e+00
  1.891196e+01    1.203892e+00
  1.902309e+01    1.203217e+00
  1.913422e+01    1.201515e+00
  1.924535e+01    1.178467e+00
  1.935648e+01    1.190156e+00
  1.946761e+01    1.159321e+00
  1.957874e+01    1.119041e+00
  1.968987e+01    1.156651e+00
  1.980100e+01    1.136600e+00
  1.991213e+01    1.119317e+00
  2.002325e+01    1.107488e+00
  2.013438e+01    1.120020e+00
  2.024551e+01    1.108466e+00
  2.035664e+01    1.092841e+00
  2.046777e+01    1.080523e+00
  2.057890e+01    1.069675e+00
  2.069003e+01    1.082432e+00
  2.080116e+01    1.072907e+00
  2.091229e+01    1.078776e+00
  2.102342e+01    1.066312e+00
  2.113455e+01    1.066862e+00
  2.124567e+01    1.115303e+00
  2.135680e+01    1.151584e+00
  2.146793e+01    1.227566e+00
  2.157906e+01    1.499602e+00
  2.169019e+01    2.386111e+00
  2.180132e+01    5.737857e+00
  2.191245e+01    8.898867e+00
  2.202358e+01    3.483559e+00
  2.213471e+01    1.731914e+00
  2.224584e+01    1.273764e+00
  2.235696e+01    1.087999e+00
  2.246809e+01    1.029460e+00
  2.257922e+01    9.914956e-01
  2.269035e+01    9.730708e-01
  2.280148e+01    9.210737e-01
  2.291261e+01    9.183244e-01
  2.302374e+01    9.089987e-01
  2.313487e+01    8.827902e-01
  2.324600e+01    8.713723e-01
  2.335713e+01    8.671026e-01
  2.346825e+01    8.544181e-01
  2.357938e+01    8.465644e-01
  2.369051e+01    8.237213e-01
  2.380164e+01    8.266264e-01
  2.391277e+01    8.102487e-01
  2.402390e+01    7.994410e-01
  2.413503e+01    7.958604e-01
  2.424616e+01    7.817784e-01
  2.435729e+01    7.980527e-01
  2.446842e+01    7.808732e-01
  2.457954e+01    7.853857e-01
  2.469067e+01    8.027015e-01
  2.480180e+01    7.942058e-01
  2.491293e+01    7.833485e-01
  2.502406e+01    7.961572e-01
  2.513519e+01    8.281181e-01
  2.524632e+01    8.427087e-01
  2.535745e+01    8.841648e-01
  2.546858e+01    9.629241e-01
  2.557971e+01    1.050554e+00
  2.569083e+01    1.446712e+00
  2.580196e+01    2.761642e+00
  2.591309e+01    6.472334e+00
  2.602422e+01    5.418783e+00
  2.613535e+01    2.057622e+00
  2.624648e+01    1.247445e+00
  2.635761e+01    1.019005e+00
  2.646874e+01    9.576541e-01
  2.657987e+01    8.877414e-01
  2.669100e+01    8.673073e-01
  2.680212e+01    8.903934e-01
  2.691325e+01    9.257402e-01
  2.702438e+01    1.072904e+00
  2.713551e+01    1.670876e+00
  2.724664e+01    2.122078e+00
  2.735777e+01    1.231757e+00
  2.746890e+01    9.367030e-01
  2.758003e+01    8.285112e-01
  2.769116e+01    8.198389e-01
  2.780229e+01    7.986301e-01
  2.791342e+01    7.713085e-01
  2.802454e+01    7.948194e-01
  2.813567e+01    7.680690e-01
  2.824680e+01    7.569547e-01
  2.835793e+01    7.801709e-01
  2.846906e+01    7.525620e-01
  2.858019e+01    7.571735e-01
  2.869132e+01    7.613938e-01
  2.880245e+01    7.397289e-01
  2.891358e+01    7.402435e-01
  2.902471e+01    7.535608e-01
  2.913583e+01    7.236447e-01
  2.924696e+01    7.204621e-01
  2.935809e+01    7.327935e-01
  2.946922e+01    7.308300e-01
  2.958035e+01    7.469432e-01
  2.969148e+01    7.275590e-01
  2.980261e+01    7.200166e-01
  2.991374e+01    7.093777e-01
  3.002487e+01    7.202941e-01
  3.013600e+01    7.368184e-01
  3.024712e+01    7.038770e-01
  3.035825e+01    6.972058e-01
  3.046938e+01    7.108807e-01
  3.058051e+01    7.083079e-01
  3.069164e+01    7.097656e-01
  3.080277e+01    7.139355e-01
  3.091390e+01    7.176145e-01
  3.102503e+01    7.183511e-01
  3.113616e+01    7.219636e-01
  3.124729e+01    7.325340e-01
  3.135841e+01    7.399962e-01
  3.146954e+01    7.690072e-01
  3.158067e+01    8.107339e-01
  3.169180e+01    9.541596e-01
  3.180293e+01    1.433246e+00
  3.191406e+01    2.203115e+00
  3.202519e+01    1.282342e+00
  3.213632e+01    8.964130e-01
  3.224745e+01    7.687148e-01
  3.235858e+01    7.509377e-01
  3.246970e+01    7.057719e-01
  3.254908e+01    7.239064e-01