Folder: myspot_2024_07/XRD/Activation ramp (part 12)

File: 2024-07-27_002_Ru-CGO-ex_Activtation_ramp_000002_data_000054.dat
# == pyFAI calibration ==
# Distance Sample to Detector: 0.4 m
# PONI: 9.750e-02, 1.135e-01 m
# Rotations: -0.000175 0.000000 -0.000000 rad
#
# == Fit2d calibration ==
# Distance Sample-beamCenter: 400.000 mm
# Center: x=1514.000, y=1300.000 pix
# Tilt: 0.010 deg  TiltPlanRot: 0.010 deg
#
# Detector Detector	 Spline= None	 PixelSize= 7.500e-05, 7.500e-05 m
#    Detector has a mask: False
#    Detector has a dark current: False
#    detector has a flat field: False
#
# Wavelength: 6.888e-11 m
# Mask applied: user provided
# Dark current applied: False
# Flat field applied: False
# Polarization factor: 0.99
# Normalization factor: 1.0
# --> /home/myspot/data/2024_07_Rosario/Ru-CGO-ex/2024-07-27_002_Ru-CGO-ex_Activtation_ramp_000002_data_000054.dat
#       q_nm^-1             I
  2.003187e-02    7.712624e-02
  1.311609e-01    2.675113e-02
  2.422899e-01    9.308089e-03
  3.534189e-01    4.236097e-02
  4.645479e-01    2.816097e-02
  5.756770e-01    3.315594e-02
  6.868060e-01    6.183929e-02
  7.979350e-01    1.345909e-01
  9.090640e-01    5.606760e-01
  1.020193e+00    1.230590e+00
  1.131322e+00    1.407771e+00
  1.242451e+00    2.336189e+00
  1.353580e+00    2.573940e+00
  1.464709e+00    2.871273e+00
  1.575838e+00    3.079142e+00
  1.686967e+00    2.873433e+00
  1.798096e+00    2.702785e+00
  1.909225e+00    2.803226e+00
  2.020354e+00    2.781625e+00
  2.131483e+00    2.819072e+00
  2.242612e+00    2.934791e+00
  2.353741e+00    2.702530e+00
  2.464870e+00    2.797932e+00
  2.575999e+00    2.885946e+00
  2.687128e+00    2.821837e+00
  2.798257e+00    2.894114e+00
  2.909386e+00    2.912894e+00
  3.020515e+00    2.980651e+00
  3.131644e+00    2.924208e+00
  3.242773e+00    2.860716e+00
  3.353902e+00    2.854673e+00
  3.465031e+00    3.033823e+00
  3.576160e+00    2.923623e+00
  3.687289e+00    3.058040e+00
  3.798418e+00    3.005217e+00
  3.909547e+00    3.122690e+00
  4.020676e+00    3.010835e+00
  4.131806e+00    3.009838e+00
  4.242935e+00    3.039701e+00
  4.354064e+00    3.012475e+00
  4.465193e+00    3.102545e+00
  4.576322e+00    3.140497e+00
  4.687451e+00    3.100607e+00
  4.798580e+00    3.134351e+00
  4.909709e+00    3.149593e+00
  5.020838e+00    3.188690e+00
  5.131967e+00    3.128365e+00
  5.243096e+00    3.114160e+00
  5.354225e+00    3.127195e+00
  5.465354e+00    3.106572e+00
  5.576483e+00    3.089012e+00
  5.687612e+00    3.125778e+00
  5.798741e+00    3.074069e+00
  5.909870e+00    3.038721e+00
  6.020999e+00    3.017443e+00
  6.132128e+00    3.102971e+00
  6.243257e+00    3.023444e+00
  6.354386e+00    3.028972e+00
  6.465515e+00    3.050035e+00
  6.576644e+00    3.067639e+00
  6.687773e+00    3.053842e+00
  6.798902e+00    2.963924e+00
  6.910031e+00    3.022902e+00
  7.021160e+00    3.019149e+00
  7.132289e+00    3.064402e+00
  7.243418e+00    3.023181e+00
  7.354547e+00    2.992372e+00
  7.465676e+00    2.996207e+00
  7.576805e+00    2.913531e+00
  7.687934e+00    2.960902e+00
  7.799063e+00    2.922981e+00
  7.910192e+00    2.939553e+00
  8.021321e+00    2.904481e+00
  8.132450e+00    2.942183e+00
  8.243579e+00    2.962854e+00
  8.354708e+00    2.889170e+00
  8.465837e+00    2.882713e+00
  8.576966e+00    2.916171e+00
  8.688095e+00    2.914447e+00
  8.799224e+00    2.891692e+00
  8.910353e+00    2.876573e+00
  9.021482e+00    2.795007e+00
  9.132611e+00    2.784532e+00
  9.243740e+00    2.805451e+00
  9.354869e+00    2.804995e+00
  9.465998e+00    2.724971e+00
  9.577127e+00    2.816474e+00
  9.688256e+00    2.766724e+00
  9.799385e+00    2.698453e+00
  9.910514e+00    2.716803e+00
  1.002164e+01    2.684480e+00
  1.013277e+01    2.667619e+00
  1.024390e+01    2.626707e+00
  1.035503e+01    2.642251e+00
  1.046616e+01    2.581527e+00
  1.057729e+01    2.602534e+00
  1.068842e+01    2.552253e+00
  1.079955e+01    2.570036e+00
  1.091068e+01    2.515158e+00
  1.102180e+01    2.522221e+00
  1.113293e+01    2.461755e+00
  1.124406e+01    2.500064e+00
  1.135519e+01    2.455238e+00
  1.146632e+01    2.403918e+00
  1.157745e+01    2.432874e+00
  1.168858e+01    2.342236e+00
  1.179971e+01    2.340271e+00
  1.191084e+01    2.325022e+00
  1.202197e+01    2.357336e+00
  1.213309e+01    2.330751e+00
  1.224422e+01    2.325995e+00
  1.235535e+01    2.384457e+00
  1.246648e+01    2.345112e+00
  1.257761e+01    2.360265e+00
  1.268874e+01    2.444540e+00
  1.279987e+01    2.693329e+00
  1.291100e+01    3.293772e+00
  1.302213e+01    6.024407e+00
  1.313326e+01    1.504499e+01
  1.324438e+01    1.507562e+01
  1.335551e+01    5.091108e+00
  1.346664e+01    3.112384e+00
  1.357777e+01    2.543313e+00
  1.368890e+01    2.336874e+00
  1.380003e+01    2.188014e+00
  1.391116e+01    2.153637e+00
  1.402229e+01    2.058270e+00
  1.413342e+01    2.039936e+00
  1.424455e+01    2.023739e+00
  1.435568e+01    1.966937e+00
  1.446680e+01    1.977237e+00
  1.457793e+01    1.904805e+00
  1.468906e+01    1.929300e+00
  1.480019e+01    1.940399e+00
  1.491132e+01    1.957586e+00
  1.502245e+01    2.199003e+00
  1.513358e+01    3.354903e+00
  1.524471e+01    5.975708e+00
  1.535584e+01    4.696178e+00
  1.546697e+01    2.433495e+00
  1.557809e+01    1.888677e+00
  1.568922e+01    1.795994e+00
  1.580035e+01    1.713873e+00
  1.591148e+01    1.668896e+00
  1.602261e+01    1.620282e+00
  1.613374e+01    1.558672e+00
  1.624487e+01    1.535931e+00
  1.635600e+01    1.528463e+00
  1.646713e+01    1.560930e+00
  1.657826e+01    1.491619e+00
  1.668938e+01    1.486940e+00
  1.680051e+01    1.497017e+00
  1.691164e+01    1.482387e+00
  1.702277e+01    1.455691e+00
  1.713390e+01    1.426540e+00
  1.724503e+01    1.413863e+00
  1.735616e+01    1.432276e+00
  1.746729e+01    1.355487e+00
  1.757842e+01    1.363206e+00
  1.768955e+01    1.311837e+00
  1.780067e+01    1.325644e+00
  1.791180e+01    1.344599e+00
  1.802293e+01    1.314145e+00
  1.813406e+01    1.270712e+00
  1.824519e+01    1.288549e+00
  1.835632e+01    1.251705e+00
  1.846745e+01    1.273562e+00
  1.857858e+01    1.240357e+00
  1.868971e+01    1.223831e+00
  1.880084e+01    1.236285e+00
  1.891196e+01    1.235815e+00
  1.902309e+01    1.199267e+00
  1.913422e+01    1.197531e+00
  1.924535e+01    1.194319e+00
  1.935648e+01    1.206492e+00
  1.946761e+01    1.165787e+00
  1.957874e+01    1.160678e+00
  1.968987e+01    1.152444e+00
  1.980100e+01    1.145587e+00
  1.991213e+01    1.127194e+00
  2.002325e+01    1.130168e+00
  2.013438e+01    1.132730e+00
  2.024551e+01    1.106903e+00
  2.035664e+01    1.078500e+00
  2.046777e+01    1.099045e+00
  2.057890e+01    1.107704e+00
  2.069003e+01    1.090327e+00
  2.080116e+01    1.097077e+00
  2.091229e+01    1.074653e+00
  2.102342e+01    1.110047e+00
  2.113455e+01    1.083284e+00
  2.124567e+01    1.112913e+00
  2.135680e+01    1.152911e+00
  2.146793e+01    1.243970e+00
  2.157906e+01    1.471173e+00
  2.169019e+01    2.163159e+00
  2.180132e+01    5.059261e+00
  2.191245e+01    1.036340e+01
  2.202358e+01    5.337066e+00
  2.213471e+01    2.165040e+00
  2.224584e+01    1.415988e+00
  2.235696e+01    1.178035e+00
  2.246809e+01    1.095254e+00
  2.257922e+01    1.021741e+00
  2.269035e+01    9.804940e-01
  2.280148e+01    9.433427e-01
  2.291261e+01    9.521320e-01
  2.302374e+01    9.115182e-01
  2.313487e+01    9.063296e-01
  2.324600e+01    8.670649e-01
  2.335713e+01    8.781488e-01
  2.346825e+01    8.612599e-01
  2.357938e+01    8.411145e-01
  2.369051e+01    8.354363e-01
  2.380164e+01    8.185994e-01
  2.391277e+01    8.120288e-01
  2.402390e+01    7.947606e-01
  2.413503e+01    7.895342e-01
  2.424616e+01    7.746775e-01
  2.435729e+01    7.991232e-01
  2.446842e+01    7.886629e-01
  2.457954e+01    8.002912e-01
  2.469067e+01    7.765753e-01
  2.480180e+01    7.804747e-01
  2.491293e+01    7.838274e-01
  2.502406e+01    8.224488e-01
  2.513519e+01    8.123632e-01
  2.524632e+01    8.455166e-01
  2.535745e+01    9.136494e-01
  2.546858e+01    9.468734e-01
  2.557971e+01    1.061114e+00
  2.569083e+01    1.350541e+00
  2.580196e+01    2.312806e+00
  2.591309e+01    5.828131e+00
  2.602422e+01    8.266026e+00
  2.613535e+01    3.126644e+00
  2.624648e+01    1.602985e+00
  2.635761e+01    1.113418e+00
  2.646874e+01    9.867535e-01
  2.657987e+01    9.431648e-01
  2.669100e+01    9.271706e-01
  2.680212e+01    9.282342e-01
  2.691325e+01    9.539654e-01
  2.702438e+01    1.048115e+00
  2.713551e+01    1.519571e+00
  2.724664e+01    2.511981e+00
  2.735777e+01    1.642073e+00
  2.746890e+01    1.066701e+00
  2.758003e+01    9.094560e-01
  2.769116e+01    8.597478e-01
  2.780229e+01    8.142607e-01
  2.791342e+01    8.209592e-01
  2.802454e+01    8.030131e-01
  2.813567e+01    7.935149e-01
  2.824680e+01    8.016547e-01
  2.835793e+01    8.043904e-01
  2.846906e+01    7.954192e-01
  2.858019e+01    7.551017e-01
  2.869132e+01    7.534485e-01
  2.880245e+01    7.660143e-01
  2.891358e+01    7.505966e-01
  2.902471e+01    7.528043e-01
  2.913583e+01    7.442360e-01
  2.924696e+01    7.382615e-01
  2.935809e+01    7.467326e-01
  2.946922e+01    7.517121e-01
  2.958035e+01    7.232183e-01
  2.969148e+01    7.419398e-01
  2.980261e+01    7.084726e-01
  2.991374e+01    7.459804e-01
  3.002487e+01    7.526830e-01
  3.013600e+01    7.391477e-01
  3.024712e+01    7.398428e-01
  3.035825e+01    7.216330e-01
  3.046938e+01    7.149221e-01
  3.058051e+01    7.167193e-01
  3.069164e+01    7.291373e-01
  3.080277e+01    7.248051e-01
  3.091390e+01    7.119217e-01
  3.102503e+01    7.203959e-01
  3.113616e+01    7.224489e-01
  3.124729e+01    7.462249e-01
  3.135841e+01    7.543367e-01
  3.146954e+01    7.495844e-01
  3.158067e+01    8.173083e-01
  3.169180e+01    9.167516e-01
  3.180293e+01    1.219684e+00
  3.191406e+01    2.301022e+00
  3.202519e+01    1.882354e+00
  3.213632e+01    1.063785e+00
  3.224745e+01    8.626316e-01
  3.235858e+01    7.702410e-01
  3.246970e+01    7.473416e-01
  3.254908e+01    7.281101e-01

File: 2024-07-27_002_Ru-CGO-ex_Activtation_ramp_000002_data_000055.dat
# == pyFAI calibration ==
# Distance Sample to Detector: 0.4 m
# PONI: 9.750e-02, 1.135e-01 m
# Rotations: -0.000175 0.000000 -0.000000 rad
#
# == Fit2d calibration ==
# Distance Sample-beamCenter: 400.000 mm
# Center: x=1514.000, y=1300.000 pix
# Tilt: 0.010 deg  TiltPlanRot: 0.010 deg
#
# Detector Detector	 Spline= None	 PixelSize= 7.500e-05, 7.500e-05 m
#    Detector has a mask: False
#    Detector has a dark current: False
#    detector has a flat field: False
#
# Wavelength: 6.888e-11 m
# Mask applied: user provided
# Dark current applied: False
# Flat field applied: False
# Polarization factor: 0.99
# Normalization factor: 1.0
# --> /home/myspot/data/2024_07_Rosario/Ru-CGO-ex/2024-07-27_002_Ru-CGO-ex_Activtation_ramp_000002_data_000055.dat
#       q_nm^-1             I
  2.003187e-02    0.000000e+00
  1.311609e-01    2.671503e-03
  2.422899e-01    2.536620e-02
  3.534189e-01    3.679363e-02
  4.645479e-01    3.845576e-02
  5.756770e-01    2.410388e-02
  6.868060e-01    5.061164e-02
  7.979350e-01    1.447064e-01
  9.090640e-01    4.796326e-01
  1.020193e+00    9.797543e-01
  1.131322e+00    1.383576e+00
  1.242451e+00    2.359439e+00
  1.353580e+00    2.684745e+00
  1.464709e+00    2.993660e+00
  1.575838e+00    3.036870e+00
  1.686967e+00    2.992939e+00
  1.798096e+00    2.751677e+00
  1.909225e+00    2.809602e+00
  2.020354e+00    2.790723e+00
  2.131483e+00    2.798868e+00
  2.242612e+00    2.718086e+00
  2.353741e+00    2.718385e+00
  2.464870e+00    2.830937e+00
  2.575999e+00    2.763363e+00
  2.687128e+00    2.858766e+00
  2.798257e+00    2.788603e+00
  2.909386e+00    2.867566e+00
  3.020515e+00    2.827065e+00
  3.131644e+00    2.874765e+00
  3.242773e+00    2.857305e+00
  3.353902e+00    2.945077e+00
  3.465031e+00    2.943068e+00
  3.576160e+00    2.890976e+00
  3.687289e+00    2.979054e+00
  3.798418e+00    2.989079e+00
  3.909547e+00    3.032888e+00
  4.020676e+00    3.166650e+00
  4.131806e+00    3.094613e+00
  4.242935e+00    3.054141e+00
  4.354064e+00    3.011804e+00
  4.465193e+00    3.101856e+00
  4.576322e+00    3.061502e+00
  4.687451e+00    3.052176e+00
  4.798580e+00    3.159936e+00
  4.909709e+00    3.077048e+00
  5.020838e+00    3.085978e+00
  5.131967e+00    3.166504e+00
  5.243096e+00    3.147941e+00
  5.354225e+00    3.106127e+00
  5.465354e+00    3.048240e+00
  5.576483e+00    3.120855e+00
  5.687612e+00    3.083169e+00
  5.798741e+00    3.089435e+00
  5.909870e+00    3.020633e+00
  6.020999e+00    3.019662e+00
  6.132128e+00    3.030892e+00
  6.243257e+00    3.108584e+00
  6.354386e+00    3.060315e+00
  6.465515e+00    3.102572e+00
  6.576644e+00    3.049217e+00
  6.687773e+00    3.104406e+00
  6.798902e+00    3.018526e+00
  6.910031e+00    3.057159e+00
  7.021160e+00    3.014378e+00
  7.132289e+00    3.067663e+00
  7.243418e+00    3.045878e+00
  7.354547e+00    2.980727e+00
  7.465676e+00    2.967721e+00
  7.576805e+00    2.992182e+00
  7.687934e+00    2.942550e+00
  7.799063e+00    2.981602e+00
  7.910192e+00    2.931444e+00
  8.021321e+00    3.017312e+00
  8.132450e+00    2.934768e+00
  8.243579e+00    2.974409e+00
  8.354708e+00    2.847856e+00
  8.465837e+00    2.946376e+00
  8.576966e+00    2.838636e+00
  8.688095e+00    2.869872e+00
  8.799224e+00    2.891740e+00
  8.910353e+00    2.841232e+00
  9.021482e+00    2.848584e+00
  9.132611e+00    2.786077e+00
  9.243740e+00    2.757957e+00
  9.354869e+00    2.767763e+00
  9.465998e+00    2.756222e+00
  9.577127e+00    2.745290e+00
  9.688256e+00    2.765129e+00
  9.799385e+00    2.655713e+00
  9.910514e+00    2.672150e+00
  1.002164e+01    2.632944e+00
  1.013277e+01    2.677719e+00
  1.024390e+01    2.665114e+00
  1.035503e+01    2.629499e+00
  1.046616e+01    2.576250e+00
  1.057729e+01    2.603988e+00
  1.068842e+01    2.531071e+00
  1.079955e+01    2.542490e+00
  1.091068e+01    2.499260e+00
  1.102180e+01    2.469177e+00
  1.113293e+01    2.483370e+00
  1.124406e+01    2.429348e+00
  1.135519e+01    2.409139e+00
  1.146632e+01    2.433033e+00
  1.157745e+01    2.387582e+00
  1.168858e+01    2.368628e+00
  1.179971e+01    2.407770e+00
  1.191084e+01    2.339536e+00
  1.202197e+01    2.402864e+00
  1.213309e+01    2.291097e+00
  1.224422e+01    2.317693e+00
  1.235535e+01    2.365172e+00
  1.246648e+01    2.341721e+00
  1.257761e+01    2.366191e+00
  1.268874e+01    2.481760e+00
  1.279987e+01    2.652596e+00
  1.291100e+01    3.299505e+00
  1.302213e+01    5.944947e+00
  1.313326e+01    1.506370e+01
  1.324438e+01    1.483204e+01
  1.335551e+01    5.036810e+00
  1.346664e+01    3.117940e+00
  1.357777e+01    2.618098e+00
  1.368890e+01    2.271609e+00
  1.380003e+01    2.180836e+00
  1.391116e+01    2.172083e+00
  1.402229e+01    2.057652e+00
  1.413342e+01    2.021483e+00
  1.424455e+01    1.976757e+00
  1.435568e+01    1.943498e+00
  1.446680e+01    1.947273e+00
  1.457793e+01    1.939519e+00
  1.468906e+01    1.942724e+00
  1.480019e+01    1.941894e+00
  1.491132e+01    1.973085e+00
  1.502245e+01    2.181680e+00
  1.513358e+01    3.277376e+00
  1.524471e+01    5.933053e+00
  1.535584e+01    4.643461e+00
  1.546697e+01    2.448998e+00
  1.557809e+01    1.916571e+00
  1.568922e+01    1.772704e+00
  1.580035e+01    1.699175e+00
  1.591148e+01    1.693359e+00
  1.602261e+01    1.639423e+00
  1.613374e+01    1.624404e+00
  1.624487e+01    1.591641e+00
  1.635600e+01    1.569679e+00
  1.646713e+01    1.546943e+00
  1.657826e+01    1.509194e+00
  1.668938e+01    1.466797e+00
  1.680051e+01    1.482986e+00
  1.691164e+01    1.451068e+00
  1.702277e+01    1.460546e+00
  1.713390e+01    1.399274e+00
  1.724503e+01    1.405448e+00
  1.735616e+01    1.381290e+00
  1.746729e+01    1.359735e+00
  1.757842e+01    1.356389e+00
  1.768955e+01    1.335258e+00
  1.780067e+01    1.353030e+00
  1.791180e+01    1.309440e+00
  1.802293e+01    1.302307e+00
  1.813406e+01    1.282111e+00
  1.824519e+01    1.292143e+00
  1.835632e+01    1.271990e+00
  1.846745e+01    1.235542e+00
  1.857858e+01    1.253111e+00
  1.868971e+01    1.215016e+00
  1.880084e+01    1.207554e+00
  1.891196e+01    1.210461e+00
  1.902309e+01    1.199612e+00
  1.913422e+01    1.184777e+00
  1.924535e+01    1.154105e+00
  1.935648e+01    1.175649e+00
  1.946761e+01    1.169143e+00
  1.957874e+01    1.158127e+00
  1.968987e+01    1.161530e+00
  1.980100e+01    1.132800e+00
  1.991213e+01    1.137893e+00
  2.002325e+01    1.143339e+00
  2.013438e+01    1.135519e+00
  2.024551e+01    1.126183e+00
  2.035664e+01    1.101431e+00
  2.046777e+01    1.084613e+00
  2.057890e+01    1.088511e+00
  2.069003e+01    1.068941e+00
  2.080116e+01    1.094237e+00
  2.091229e+01    1.086169e+00
  2.102342e+01    1.078462e+00
  2.113455e+01    1.103608e+00
  2.124567e+01    1.124006e+00
  2.135680e+01    1.138488e+00
  2.146793e+01    1.273074e+00
  2.157906e+01    1.460858e+00
  2.169019e+01    2.159684e+00
  2.180132e+01    5.136803e+00
  2.191245e+01    1.041913e+01
  2.202358e+01    5.293339e+00
  2.213471e+01    2.149515e+00
  2.224584e+01    1.437850e+00
  2.235696e+01    1.188667e+00
  2.246809e+01    1.062682e+00
  2.257922e+01    1.004124e+00
  2.269035e+01    9.922587e-01
  2.280148e+01    9.577755e-01
  2.291261e+01    9.242529e-01
  2.302374e+01    9.091693e-01
  2.313487e+01    9.197228e-01
  2.324600e+01    8.910102e-01
  2.335713e+01    9.043893e-01
  2.346825e+01    8.621205e-01
  2.357938e+01    8.449888e-01
  2.369051e+01    8.311503e-01
  2.380164e+01    8.362677e-01
  2.391277e+01    8.334265e-01
  2.402390e+01    8.065960e-01
  2.413503e+01    7.948760e-01
  2.424616e+01    7.897093e-01
  2.435729e+01    7.962858e-01
  2.446842e+01    7.997615e-01
  2.457954e+01    7.907012e-01
  2.469067e+01    8.054714e-01
  2.480180e+01    8.010293e-01
  2.491293e+01    7.991844e-01
  2.502406e+01    8.213283e-01
  2.513519e+01    8.418715e-01
  2.524632e+01    8.436073e-01
  2.535745e+01    8.955619e-01
  2.546858e+01    9.434429e-01
  2.557971e+01    1.064101e+00
  2.569083e+01    1.377914e+00
  2.580196e+01    2.272884e+00
  2.591309e+01    5.823134e+00
  2.602422e+01    8.240134e+00
  2.613535e+01    3.096951e+00
  2.624648e+01    1.568466e+00
  2.635761e+01    1.132773e+00
  2.646874e+01    1.004913e+00
  2.657987e+01    9.496779e-01
  2.669100e+01    9.196162e-01
  2.680212e+01    9.044600e-01
  2.691325e+01    9.437065e-01
  2.702438e+01    1.060349e+00
  2.713551e+01    1.499250e+00
  2.724664e+01    2.495072e+00
  2.735777e+01    1.594982e+00
  2.746890e+01    1.041903e+00
  2.758003e+01    8.945615e-01
  2.769116e+01    8.661620e-01
  2.780229e+01    8.292786e-01
  2.791342e+01    8.166361e-01
  2.802454e+01    7.910401e-01
  2.813567e+01    7.615133e-01
  2.824680e+01    7.854346e-01
  2.835793e+01    7.516229e-01
  2.846906e+01    7.853595e-01
  2.858019e+01    7.863540e-01
  2.869132e+01    7.579046e-01
  2.880245e+01    7.629637e-01
  2.891358e+01    7.569159e-01
  2.902471e+01    7.757544e-01
  2.913583e+01    7.454494e-01
  2.924696e+01    7.311725e-01
  2.935809e+01    7.556049e-01
  2.946922e+01    7.265834e-01
  2.958035e+01    7.387747e-01
  2.969148e+01    7.104629e-01
  2.980261e+01    7.260367e-01
  2.991374e+01    7.306195e-01
  3.002487e+01    7.430947e-01
  3.013600e+01    7.507145e-01
  3.024712e+01    7.165043e-01
  3.035825e+01    7.176114e-01
  3.046938e+01    7.071702e-01
  3.058051e+01    7.316000e-01
  3.069164e+01    7.077535e-01
  3.080277e+01    7.260111e-01
  3.091390e+01    7.387602e-01
  3.102503e+01    7.138887e-01
  3.113616e+01    7.328832e-01
  3.124729e+01    7.490881e-01
  3.135841e+01    7.626502e-01
  3.146954e+01    7.620311e-01
  3.158067e+01    8.278944e-01
  3.169180e+01    8.891770e-01
  3.180293e+01    1.236350e+00
  3.191406e+01    2.316558e+00
  3.202519e+01    1.868761e+00
  3.213632e+01    1.052983e+00
  3.224745e+01    8.589760e-01
  3.235858e+01    7.874789e-01
  3.246970e+01    7.241030e-01
  3.254908e+01    7.550710e-01