Folder: myspot_2024_07/XRD/Activation ramp (part 17)

File: 2024-07-27_002_Ru-CGO-ex_Activtation_ramp_000002_data_000070.dat
# == pyFAI calibration ==
# Distance Sample to Detector: 0.4 m
# PONI: 9.750e-02, 1.135e-01 m
# Rotations: -0.000175 0.000000 -0.000000 rad
#
# == Fit2d calibration ==
# Distance Sample-beamCenter: 400.000 mm
# Center: x=1514.000, y=1300.000 pix
# Tilt: 0.010 deg  TiltPlanRot: 0.010 deg
#
# Detector Detector	 Spline= None	 PixelSize= 7.500e-05, 7.500e-05 m
#    Detector has a mask: False
#    Detector has a dark current: False
#    detector has a flat field: False
#
# Wavelength: 6.888e-11 m
# Mask applied: user provided
# Dark current applied: False
# Flat field applied: False
# Polarization factor: 0.99
# Normalization factor: 1.0
# --> /home/myspot/data/2024_07_Rosario/Ru-CGO-ex/2024-07-27_002_Ru-CGO-ex_Activtation_ramp_000002_data_000070.dat
#       q_nm^-1             I
  2.003187e-02    7.711350e-02
  1.311609e-01    1.852852e-02
  2.422899e-01    2.241457e-02
  3.534189e-01    3.202115e-02
  4.645479e-01    4.991880e-02
  5.756770e-01    2.720070e-02
  6.868060e-01    3.826494e-02
  7.979350e-01    1.591012e-01
  9.090640e-01    5.722384e-01
  1.020193e+00    1.112376e+00
  1.131322e+00    1.426479e+00
  1.242451e+00    2.202105e+00
  1.353580e+00    2.631299e+00
  1.464709e+00    2.836317e+00
  1.575838e+00    3.084088e+00
  1.686967e+00    2.798623e+00
  1.798096e+00    2.671165e+00
  1.909225e+00    2.847423e+00
  2.020354e+00    2.640482e+00
  2.131483e+00    2.734480e+00
  2.242612e+00    2.859882e+00
  2.353741e+00    2.832690e+00
  2.464870e+00    2.843727e+00
  2.575999e+00    2.856790e+00
  2.687128e+00    2.795389e+00
  2.798257e+00    2.786095e+00
  2.909386e+00    2.865971e+00
  3.020515e+00    2.902288e+00
  3.131644e+00    2.897943e+00
  3.242773e+00    2.916666e+00
  3.353902e+00    2.963920e+00
  3.465031e+00    2.871444e+00
  3.576160e+00    2.932327e+00
  3.687289e+00    2.953887e+00
  3.798418e+00    3.020162e+00
  3.909547e+00    2.986750e+00
  4.020676e+00    3.019336e+00
  4.131806e+00    2.989975e+00
  4.242935e+00    2.997888e+00
  4.354064e+00    3.058835e+00
  4.465193e+00    3.151142e+00
  4.576322e+00    2.977448e+00
  4.687451e+00    3.136402e+00
  4.798580e+00    3.144270e+00
  4.909709e+00    3.069429e+00
  5.020838e+00    3.122459e+00
  5.131967e+00    3.149611e+00
  5.243096e+00    3.138341e+00
  5.354225e+00    3.182550e+00
  5.465354e+00    3.050205e+00
  5.576483e+00    3.056986e+00
  5.687612e+00    3.087133e+00
  5.798741e+00    2.972128e+00
  5.909870e+00    3.058970e+00
  6.020999e+00    3.049533e+00
  6.132128e+00    3.026086e+00
  6.243257e+00    3.106715e+00
  6.354386e+00    2.956239e+00
  6.465515e+00    3.008613e+00
  6.576644e+00    2.967250e+00
  6.687773e+00    3.041375e+00
  6.798902e+00    2.959646e+00
  6.910031e+00    2.983294e+00
  7.021160e+00    2.985279e+00
  7.132289e+00    2.992467e+00
  7.243418e+00    2.915428e+00
  7.354547e+00    3.007303e+00
  7.465676e+00    3.037728e+00
  7.576805e+00    2.927701e+00
  7.687934e+00    2.912910e+00
  7.799063e+00    2.880543e+00
  7.910192e+00    2.927230e+00
  8.021321e+00    2.880814e+00
  8.132450e+00    2.944415e+00
  8.243579e+00    2.929335e+00
  8.354708e+00    2.903121e+00
  8.465837e+00    2.859232e+00
  8.576966e+00    2.832579e+00
  8.688095e+00    2.878473e+00
  8.799224e+00    2.834820e+00
  8.910353e+00    2.807670e+00
  9.021482e+00    2.790173e+00
  9.132611e+00    2.852664e+00
  9.243740e+00    2.796863e+00
  9.354869e+00    2.745916e+00
  9.465998e+00    2.706053e+00
  9.577127e+00    2.817454e+00
  9.688256e+00    2.701858e+00
  9.799385e+00    2.762676e+00
  9.910514e+00    2.697640e+00
  1.002164e+01    2.663166e+00
  1.013277e+01    2.633284e+00
  1.024390e+01    2.634242e+00
  1.035503e+01    2.619299e+00
  1.046616e+01    2.637775e+00
  1.057729e+01    2.600139e+00
  1.068842e+01    2.549577e+00
  1.079955e+01    2.515149e+00
  1.091068e+01    2.478300e+00
  1.102180e+01    2.446258e+00
  1.113293e+01    2.477679e+00
  1.124406e+01    2.424280e+00
  1.135519e+01    2.437219e+00
  1.146632e+01    2.370447e+00
  1.157745e+01    2.374662e+00
  1.168858e+01    2.370099e+00
  1.179971e+01    2.312010e+00
  1.191084e+01    2.344882e+00
  1.202197e+01    2.340985e+00
  1.213309e+01    2.299694e+00
  1.224422e+01    2.316569e+00
  1.235535e+01    2.344418e+00
  1.246648e+01    2.347712e+00
  1.257761e+01    2.418058e+00
  1.268874e+01    2.407051e+00
  1.279987e+01    2.680895e+00
  1.291100e+01    3.239797e+00
  1.302213e+01    6.027991e+00
  1.313326e+01    1.500064e+01
  1.324438e+01    1.403558e+01
  1.335551e+01    4.890939e+00
  1.346664e+01    3.034456e+00
  1.357777e+01    2.497282e+00
  1.368890e+01    2.276325e+00
  1.380003e+01    2.115664e+00
  1.391116e+01    2.105280e+00
  1.402229e+01    2.094225e+00
  1.413342e+01    1.998701e+00
  1.424455e+01    1.954400e+00
  1.435568e+01    1.933341e+00
  1.446680e+01    1.880559e+00
  1.457793e+01    1.905211e+00
  1.468906e+01    1.865492e+00
  1.480019e+01    1.913080e+00
  1.491132e+01    1.954022e+00
  1.502245e+01    2.160592e+00
  1.513358e+01    3.363646e+00
  1.524471e+01    5.869795e+00
  1.535584e+01    4.416427e+00
  1.546697e+01    2.340343e+00
  1.557809e+01    1.935241e+00
  1.568922e+01    1.765588e+00
  1.580035e+01    1.695828e+00
  1.591148e+01    1.687396e+00
  1.602261e+01    1.605080e+00
  1.613374e+01    1.568332e+00
  1.624487e+01    1.554483e+00
  1.635600e+01    1.531252e+00
  1.646713e+01    1.501048e+00
  1.657826e+01    1.470950e+00
  1.668938e+01    1.467691e+00
  1.680051e+01    1.477132e+00
  1.691164e+01    1.473680e+00
  1.702277e+01    1.410106e+00
  1.713390e+01    1.432553e+00
  1.724503e+01    1.411109e+00
  1.735616e+01    1.366264e+00
  1.746729e+01    1.356497e+00
  1.757842e+01    1.381620e+00
  1.768955e+01    1.353566e+00
  1.780067e+01    1.350006e+00
  1.791180e+01    1.311571e+00
  1.802293e+01    1.284846e+00
  1.813406e+01    1.330937e+00
  1.824519e+01    1.280753e+00
  1.835632e+01    1.290865e+00
  1.846745e+01    1.233779e+00
  1.857858e+01    1.279624e+00
  1.868971e+01    1.247014e+00
  1.880084e+01    1.218890e+00
  1.891196e+01    1.214696e+00
  1.902309e+01    1.215780e+00
  1.913422e+01    1.187201e+00
  1.924535e+01    1.200634e+00
  1.935648e+01    1.163845e+00
  1.946761e+01    1.172060e+00
  1.957874e+01    1.133743e+00
  1.968987e+01    1.147936e+00
  1.980100e+01    1.149865e+00
  1.991213e+01    1.138187e+00
  2.002325e+01    1.105228e+00
  2.013438e+01    1.110800e+00
  2.024551e+01    1.107420e+00
  2.035664e+01    1.120518e+00
  2.046777e+01    1.105106e+00
  2.057890e+01    1.082072e+00
  2.069003e+01    1.082555e+00
  2.080116e+01    1.062531e+00
  2.091229e+01    1.085235e+00
  2.102342e+01    1.075282e+00
  2.113455e+01    1.096901e+00
  2.124567e+01    1.114425e+00
  2.135680e+01    1.133847e+00
  2.146793e+01    1.252309e+00
  2.157906e+01    1.471408e+00
  2.169019e+01    2.174777e+00
  2.180132e+01    5.176187e+00
  2.191245e+01    1.021475e+01
  2.202358e+01    4.941714e+00
  2.213471e+01    2.070590e+00
  2.224584e+01    1.377843e+00
  2.235696e+01    1.166628e+00
  2.246809e+01    1.077355e+00
  2.257922e+01    1.009110e+00
  2.269035e+01    9.821270e-01
  2.280148e+01    9.359488e-01
  2.291261e+01    9.290412e-01
  2.302374e+01    8.901264e-01
  2.313487e+01    8.770538e-01
  2.324600e+01    8.764436e-01
  2.335713e+01    8.651061e-01
  2.346825e+01    8.506177e-01
  2.357938e+01    8.480318e-01
  2.369051e+01    8.192378e-01
  2.380164e+01    8.217469e-01
  2.391277e+01    8.140934e-01
  2.402390e+01    7.896410e-01
  2.413503e+01    7.664745e-01
  2.424616e+01    7.579024e-01
  2.435729e+01    8.107160e-01
  2.446842e+01    7.970721e-01
  2.457954e+01    7.843292e-01
  2.469067e+01    8.010034e-01
  2.480180e+01    7.844270e-01
  2.491293e+01    8.095078e-01
  2.502406e+01    8.116021e-01
  2.513519e+01    8.156993e-01
  2.524632e+01    8.507918e-01
  2.535745e+01    9.092157e-01
  2.546858e+01    9.558452e-01
  2.557971e+01    1.049480e+00
  2.569083e+01    1.378287e+00
  2.580196e+01    2.352389e+00
  2.591309e+01    6.006547e+00
  2.602422e+01    7.718199e+00
  2.613535e+01    2.874940e+00
  2.624648e+01    1.500181e+00
  2.635761e+01    1.129307e+00
  2.646874e+01    9.958916e-01
  2.657987e+01    9.311985e-01
  2.669100e+01    9.047595e-01
  2.680212e+01    8.945211e-01
  2.691325e+01    9.194085e-01
  2.702438e+01    1.046548e+00
  2.713551e+01    1.543127e+00
  2.724664e+01    2.452730e+00
  2.735777e+01    1.517194e+00
  2.746890e+01    1.005885e+00
  2.758003e+01    8.855619e-01
  2.769116e+01    8.283387e-01
  2.780229e+01    8.268472e-01
  2.791342e+01    8.142325e-01
  2.802454e+01    7.801633e-01
  2.813567e+01    7.874825e-01
  2.824680e+01    7.621889e-01
  2.835793e+01    7.714934e-01
  2.846906e+01    7.646926e-01
  2.858019e+01    7.877305e-01
  2.869132e+01    7.584838e-01
  2.880245e+01    7.615228e-01
  2.891358e+01    7.606897e-01
  2.902471e+01    7.408244e-01
  2.913583e+01    7.479892e-01
  2.924696e+01    7.217090e-01
  2.935809e+01    7.381411e-01
  2.946922e+01    7.034217e-01
  2.958035e+01    7.382797e-01
  2.969148e+01    7.209576e-01
  2.980261e+01    7.265807e-01
  2.991374e+01    7.192414e-01
  3.002487e+01    7.396672e-01
  3.013600e+01    7.520435e-01
  3.024712e+01    7.040733e-01
  3.035825e+01    7.064939e-01
  3.046938e+01    7.318642e-01
  3.058051e+01    6.925247e-01
  3.069164e+01    7.102301e-01
  3.080277e+01    7.109329e-01
  3.091390e+01    6.995942e-01
  3.102503e+01    7.233409e-01
  3.113616e+01    7.120624e-01
  3.124729e+01    7.318940e-01
  3.135841e+01    7.232553e-01
  3.146954e+01    7.747206e-01
  3.158067e+01    7.890660e-01
  3.169180e+01    9.280725e-01
  3.180293e+01    1.281796e+00
  3.191406e+01    2.313593e+00
  3.202519e+01    1.776080e+00
  3.213632e+01    9.988931e-01
  3.224745e+01    8.396844e-01
  3.235858e+01    7.542296e-01
  3.246970e+01    7.176682e-01
  3.254908e+01    7.545885e-01

File: 2024-07-27_002_Ru-CGO-ex_Activtation_ramp_000002_data_000071.dat
# == pyFAI calibration ==
# Distance Sample to Detector: 0.4 m
# PONI: 9.750e-02, 1.135e-01 m
# Rotations: -0.000175 0.000000 -0.000000 rad
#
# == Fit2d calibration ==
# Distance Sample-beamCenter: 400.000 mm
# Center: x=1514.000, y=1300.000 pix
# Tilt: 0.010 deg  TiltPlanRot: 0.010 deg
#
# Detector Detector	 Spline= None	 PixelSize= 7.500e-05, 7.500e-05 m
#    Detector has a mask: False
#    Detector has a dark current: False
#    detector has a flat field: False
#
# Wavelength: 6.888e-11 m
# Mask applied: user provided
# Dark current applied: False
# Flat field applied: False
# Polarization factor: 0.99
# Normalization factor: 1.0
# --> /home/myspot/data/2024_07_Rosario/Ru-CGO-ex/2024-07-27_002_Ru-CGO-ex_Activtation_ramp_000002_data_000071.dat
#       q_nm^-1             I
  2.003187e-02    0.000000e+00
  1.311609e-01    4.589266e-02
  2.422899e-01    2.917559e-02
  3.534189e-01    3.377066e-02
  4.645479e-01    6.064674e-02
  5.756770e-01    2.883053e-02
  6.868060e-01    3.261403e-02
  7.979350e-01    1.652511e-01
  9.090640e-01    5.820011e-01
  1.020193e+00    1.066339e+00
  1.131322e+00    1.404248e+00
  1.242451e+00    2.202857e+00
  1.353580e+00    2.501047e+00
  1.464709e+00    2.837947e+00
  1.575838e+00    2.920842e+00
  1.686967e+00    2.844600e+00
  1.798096e+00    2.836601e+00
  1.909225e+00    2.752096e+00
  2.020354e+00    2.727719e+00
  2.131483e+00    2.737026e+00
  2.242612e+00    2.745197e+00
  2.353741e+00    2.702764e+00
  2.464870e+00    2.770952e+00
  2.575999e+00    2.806142e+00
  2.687128e+00    2.831357e+00
  2.798257e+00    2.796809e+00
  2.909386e+00    2.791455e+00
  3.020515e+00    2.928557e+00
  3.131644e+00    2.905764e+00
  3.242773e+00    2.862953e+00
  3.353902e+00    2.935528e+00
  3.465031e+00    2.928859e+00
  3.576160e+00    2.925461e+00
  3.687289e+00    2.939257e+00
  3.798418e+00    2.957836e+00
  3.909547e+00    2.925443e+00
  4.020676e+00    3.048724e+00
  4.131806e+00    2.977013e+00
  4.242935e+00    2.987404e+00
  4.354064e+00    3.003627e+00
  4.465193e+00    3.049513e+00
  4.576322e+00    3.101562e+00
  4.687451e+00    2.925579e+00
  4.798580e+00    3.090151e+00
  4.909709e+00    3.100730e+00
  5.020838e+00    3.029368e+00
  5.131967e+00    3.052012e+00
  5.243096e+00    3.089899e+00
  5.354225e+00    3.044127e+00
  5.465354e+00    3.127378e+00
  5.576483e+00    3.018094e+00
  5.687612e+00    3.143459e+00
  5.798741e+00    3.107712e+00
  5.909870e+00    2.985118e+00
  6.020999e+00    3.003220e+00
  6.132128e+00    3.066304e+00
  6.243257e+00    3.045766e+00
  6.354386e+00    3.052208e+00
  6.465515e+00    2.935217e+00
  6.576644e+00    2.982700e+00
  6.687773e+00    3.042443e+00
  6.798902e+00    2.966201e+00
  6.910031e+00    3.008692e+00
  7.021160e+00    2.988970e+00
  7.132289e+00    2.974093e+00
  7.243418e+00    2.959934e+00
  7.354547e+00    2.936528e+00
  7.465676e+00    3.014529e+00
  7.576805e+00    2.941928e+00
  7.687934e+00    2.913809e+00
  7.799063e+00    2.944157e+00
  7.910192e+00    2.918727e+00
  8.021321e+00    2.920702e+00
  8.132450e+00    2.936964e+00
  8.243579e+00    2.964889e+00
  8.354708e+00    2.934004e+00
  8.465837e+00    2.900281e+00
  8.576966e+00    2.871059e+00
  8.688095e+00    2.859112e+00
  8.799224e+00    2.805045e+00
  8.910353e+00    2.781881e+00
  9.021482e+00    2.791381e+00
  9.132611e+00    2.751176e+00
  9.243740e+00    2.771000e+00
  9.354869e+00    2.697835e+00
  9.465998e+00    2.734008e+00
  9.577127e+00    2.784401e+00
  9.688256e+00    2.757867e+00
  9.799385e+00    2.713209e+00
  9.910514e+00    2.676011e+00
  1.002164e+01    2.681673e+00
  1.013277e+01    2.626698e+00
  1.024390e+01    2.600186e+00
  1.035503e+01    2.634544e+00
  1.046616e+01    2.587351e+00
  1.057729e+01    2.524042e+00
  1.068842e+01    2.555727e+00
  1.079955e+01    2.523147e+00
  1.091068e+01    2.528779e+00
  1.102180e+01    2.469878e+00
  1.113293e+01    2.451524e+00
  1.124406e+01    2.421779e+00
  1.135519e+01    2.438213e+00
  1.146632e+01    2.419333e+00
  1.157745e+01    2.392093e+00
  1.168858e+01    2.347173e+00
  1.179971e+01    2.354539e+00
  1.191084e+01    2.314485e+00
  1.202197e+01    2.301247e+00
  1.213309e+01    2.310766e+00
  1.224422e+01    2.318532e+00
  1.235535e+01    2.350530e+00
  1.246648e+01    2.291715e+00
  1.257761e+01    2.349178e+00
  1.268874e+01    2.421931e+00
  1.279987e+01    2.613307e+00
  1.291100e+01    3.263005e+00
  1.302213e+01    5.923385e+00
  1.313326e+01    1.486195e+01
  1.324438e+01    1.422301e+01
  1.335551e+01    4.883179e+00
  1.346664e+01    2.988979e+00
  1.357777e+01    2.496932e+00
  1.368890e+01    2.285024e+00
  1.380003e+01    2.171611e+00
  1.391116e+01    2.077561e+00
  1.402229e+01    2.017706e+00
  1.413342e+01    1.999425e+00
  1.424455e+01    1.968008e+00
  1.435568e+01    1.952635e+00
  1.446680e+01    1.901792e+00
  1.457793e+01    1.921609e+00
  1.468906e+01    1.960849e+00
  1.480019e+01    1.904579e+00
  1.491132e+01    1.987260e+00
  1.502245e+01    2.174345e+00
  1.513358e+01    3.227034e+00
  1.524471e+01    5.858809e+00
  1.535584e+01    4.426516e+00
  1.546697e+01    2.327255e+00
  1.557809e+01    1.903026e+00
  1.568922e+01    1.715807e+00
  1.580035e+01    1.702277e+00
  1.591148e+01    1.623089e+00
  1.602261e+01    1.591848e+00
  1.613374e+01    1.631261e+00
  1.624487e+01    1.538246e+00
  1.635600e+01    1.557313e+00
  1.646713e+01    1.497651e+00
  1.657826e+01    1.516043e+00
  1.668938e+01    1.480460e+00
  1.680051e+01    1.459174e+00
  1.691164e+01    1.466783e+00
  1.702277e+01    1.446448e+00
  1.713390e+01    1.429537e+00
  1.724503e+01    1.401551e+00
  1.735616e+01    1.385119e+00
  1.746729e+01    1.353449e+00
  1.757842e+01    1.338453e+00
  1.768955e+01    1.358658e+00
  1.780067e+01    1.339640e+00
  1.791180e+01    1.300251e+00
  1.802293e+01    1.290989e+00
  1.813406e+01    1.280617e+00
  1.824519e+01    1.299624e+00
  1.835632e+01    1.251139e+00
  1.846745e+01    1.236588e+00
  1.857858e+01    1.219976e+00
  1.868971e+01    1.207613e+00
  1.880084e+01    1.214339e+00
  1.891196e+01    1.216457e+00
  1.902309e+01    1.205002e+00
  1.913422e+01    1.198977e+00
  1.924535e+01    1.164455e+00
  1.935648e+01    1.183857e+00
  1.946761e+01    1.151388e+00
  1.957874e+01    1.132205e+00
  1.968987e+01    1.152921e+00
  1.980100e+01    1.136354e+00
  1.991213e+01    1.119074e+00
  2.002325e+01    1.119481e+00
  2.013438e+01    1.121655e+00
  2.024551e+01    1.103738e+00
  2.035664e+01    1.105794e+00
  2.046777e+01    1.091655e+00
  2.057890e+01    1.080450e+00
  2.069003e+01    1.086526e+00
  2.080116e+01    1.061692e+00
  2.091229e+01    1.083309e+00
  2.102342e+01    1.090363e+00
  2.113455e+01    1.089895e+00
  2.124567e+01    1.078275e+00
  2.135680e+01    1.154674e+00
  2.146793e+01    1.260544e+00
  2.157906e+01    1.478163e+00
  2.169019e+01    2.173804e+00
  2.180132e+01    5.092071e+00
  2.191245e+01    1.018178e+01
  2.202358e+01    4.969701e+00
  2.213471e+01    2.086732e+00
  2.224584e+01    1.356344e+00
  2.235696e+01    1.149237e+00
  2.246809e+01    1.066055e+00
  2.257922e+01    9.950562e-01
  2.269035e+01    9.782229e-01
  2.280148e+01    9.184484e-01
  2.291261e+01    9.185402e-01
  2.302374e+01    9.144061e-01
  2.313487e+01    8.758888e-01
  2.324600e+01    8.726341e-01
  2.335713e+01    8.558954e-01
  2.346825e+01    8.466923e-01
  2.357938e+01    8.536329e-01
  2.369051e+01    8.229679e-01
  2.380164e+01    7.963329e-01
  2.391277e+01    7.923212e-01
  2.402390e+01    7.715356e-01
  2.413503e+01    7.893274e-01
  2.424616e+01    7.729554e-01
  2.435729e+01    7.768651e-01
  2.446842e+01    7.971185e-01
  2.457954e+01    7.931696e-01
  2.469067e+01    7.782971e-01
  2.480180e+01    7.786061e-01
  2.491293e+01    7.808117e-01
  2.502406e+01    7.953654e-01
  2.513519e+01    8.153765e-01
  2.524632e+01    8.529390e-01
  2.535745e+01    8.681700e-01
  2.546858e+01    9.370264e-01
  2.557971e+01    1.064934e+00
  2.569083e+01    1.366719e+00
  2.580196e+01    2.362599e+00
  2.591309e+01    5.907321e+00
  2.602422e+01    7.744926e+00
  2.613535e+01    2.911418e+00
  2.624648e+01    1.491130e+00
  2.635761e+01    1.109577e+00
  2.646874e+01    9.728618e-01
  2.657987e+01    9.503905e-01
  2.669100e+01    9.034128e-01
  2.680212e+01    9.136121e-01
  2.691325e+01    9.203616e-01
  2.702438e+01    1.030464e+00
  2.713551e+01    1.508760e+00
  2.724664e+01    2.465270e+00
  2.735777e+01    1.567950e+00
  2.746890e+01    9.989302e-01
  2.758003e+01    8.648163e-01
  2.769116e+01    8.256861e-01
  2.780229e+01    8.131409e-01
  2.791342e+01    7.819985e-01
  2.802454e+01    8.032885e-01
  2.813567e+01    7.955648e-01
  2.824680e+01    7.933084e-01
  2.835793e+01    7.581378e-01
  2.846906e+01    7.688456e-01
  2.858019e+01    7.712333e-01
  2.869132e+01    7.636690e-01
  2.880245e+01    7.459674e-01
  2.891358e+01    7.359603e-01
  2.902471e+01    7.526624e-01
  2.913583e+01    7.525405e-01
  2.924696e+01    7.256539e-01
  2.935809e+01    7.456417e-01
  2.946922e+01    7.332969e-01
  2.958035e+01    7.102907e-01
  2.969148e+01    7.206932e-01
  2.980261e+01    7.257062e-01
  2.991374e+01    7.278270e-01
  3.002487e+01    7.332761e-01
  3.013600e+01    7.092572e-01
  3.024712e+01    7.037898e-01
  3.035825e+01    7.008355e-01
  3.046938e+01    7.279298e-01
  3.058051e+01    7.111059e-01
  3.069164e+01    6.926135e-01
  3.080277e+01    7.106142e-01
  3.091390e+01    7.250832e-01
  3.102503e+01    7.043778e-01
  3.113616e+01    7.234805e-01
  3.124729e+01    7.327274e-01
  3.135841e+01    7.368157e-01
  3.146954e+01    7.634673e-01
  3.158067e+01    7.838791e-01
  3.169180e+01    9.120347e-01
  3.180293e+01    1.265284e+00
  3.191406e+01    2.311157e+00
  3.202519e+01    1.820042e+00
  3.213632e+01    1.013419e+00
  3.224745e+01    8.391512e-01
  3.235858e+01    7.349960e-01
  3.246970e+01    7.465897e-01
  3.254908e+01    7.475128e-01