Folder: myspot_2024_07/XRD/Activation ramp (part 5)

File: 2024-07-27_002_Ru-CGO-ex_Activtation_ramp_000002_data_000018.dat
# == pyFAI calibration ==
# Distance Sample to Detector: 0.4 m
# PONI: 9.750e-02, 1.135e-01 m
# Rotations: -0.000175 0.000000 -0.000000 rad
#
# == Fit2d calibration ==
# Distance Sample-beamCenter: 400.000 mm
# Center: x=1514.000, y=1300.000 pix
# Tilt: 0.010 deg  TiltPlanRot: 0.010 deg
#
# Detector Detector	 Spline= None	 PixelSize= 7.500e-05, 7.500e-05 m
#    Detector has a mask: False
#    Detector has a dark current: False
#    detector has a flat field: False
#
# Wavelength: 6.888e-11 m
# Mask applied: user provided
# Dark current applied: False
# Flat field applied: False
# Polarization factor: 0.99
# Normalization factor: 1.0
# --> /home/myspot/data/2024_07_Rosario/Ru-CGO-ex/2024-07-27_002_Ru-CGO-ex_Activtation_ramp_000002_data_000018.dat
#       q_nm^-1             I
  2.003187e-02    1.542410e-01
  1.311609e-01    9.006867e-02
  2.422899e-01    1.593336e-02
  3.534189e-01    5.188941e-02
  4.645479e-01    4.174637e-02
  5.756770e-01    6.777482e-02
  6.868060e-01    5.288403e-02
  7.979350e-01    1.481726e-01
  9.090640e-01    5.974317e-01
  1.020193e+00    1.128247e+00
  1.131322e+00    1.551502e+00
  1.242451e+00    2.371785e+00
  1.353580e+00    2.664766e+00
  1.464709e+00    2.887572e+00
  1.575838e+00    2.905006e+00
  1.686967e+00    2.971042e+00
  1.798096e+00    2.928844e+00
  1.909225e+00    2.724173e+00
  2.020354e+00    2.892165e+00
  2.131483e+00    2.785037e+00
  2.242612e+00    2.699992e+00
  2.353741e+00    2.826775e+00
  2.464870e+00    2.814500e+00
  2.575999e+00    2.770772e+00
  2.687128e+00    2.771546e+00
  2.798257e+00    2.889601e+00
  2.909386e+00    2.981461e+00
  3.020515e+00    2.878263e+00
  3.131644e+00    2.908518e+00
  3.242773e+00    2.926807e+00
  3.353902e+00    2.931589e+00
  3.465031e+00    2.971922e+00
  3.576160e+00    3.034457e+00
  3.687289e+00    2.958590e+00
  3.798418e+00    3.033202e+00
  3.909547e+00    3.015932e+00
  4.020676e+00    3.051531e+00
  4.131806e+00    3.029560e+00
  4.242935e+00    3.104636e+00
  4.354064e+00    2.985016e+00
  4.465193e+00    3.083151e+00
  4.576322e+00    3.144300e+00
  4.687451e+00    3.060413e+00
  4.798580e+00    3.081161e+00
  4.909709e+00    3.094284e+00
  5.020838e+00    3.121678e+00
  5.131967e+00    3.163667e+00
  5.243096e+00    3.156073e+00
  5.354225e+00    3.190954e+00
  5.465354e+00    3.000972e+00
  5.576483e+00    3.052978e+00
  5.687612e+00    3.058219e+00
  5.798741e+00    3.034356e+00
  5.909870e+00    3.003989e+00
  6.020999e+00    2.970607e+00
  6.132128e+00    3.065437e+00
  6.243257e+00    3.111019e+00
  6.354386e+00    3.077861e+00
  6.465515e+00    3.095346e+00
  6.576644e+00    3.046558e+00
  6.687773e+00    3.036699e+00
  6.798902e+00    3.112133e+00
  6.910031e+00    3.166154e+00
  7.021160e+00    3.070031e+00
  7.132289e+00    2.997481e+00
  7.243418e+00    3.078432e+00
  7.354547e+00    2.981242e+00
  7.465676e+00    2.958994e+00
  7.576805e+00    2.973007e+00
  7.687934e+00    2.998676e+00
  7.799063e+00    2.960737e+00
  7.910192e+00    2.900708e+00
  8.021321e+00    2.936535e+00
  8.132450e+00    2.972524e+00
  8.243579e+00    3.045321e+00
  8.354708e+00    2.873912e+00
  8.465837e+00    2.826401e+00
  8.576966e+00    2.901248e+00
  8.688095e+00    2.878999e+00
  8.799224e+00    2.864757e+00
  8.910353e+00    2.924469e+00
  9.021482e+00    2.787404e+00
  9.132611e+00    2.854757e+00
  9.243740e+00    2.799377e+00
  9.354869e+00    2.805202e+00
  9.465998e+00    2.760556e+00
  9.577127e+00    2.790901e+00
  9.688256e+00    2.731400e+00
  9.799385e+00    2.733541e+00
  9.910514e+00    2.682735e+00
  1.002164e+01    2.703418e+00
  1.013277e+01    2.767390e+00
  1.024390e+01    2.678704e+00
  1.035503e+01    2.602172e+00
  1.046616e+01    2.639549e+00
  1.057729e+01    2.580479e+00
  1.068842e+01    2.526847e+00
  1.079955e+01    2.559982e+00
  1.091068e+01    2.517040e+00
  1.102180e+01    2.554520e+00
  1.113293e+01    2.500233e+00
  1.124406e+01    2.439016e+00
  1.135519e+01    2.465266e+00
  1.146632e+01    2.376062e+00
  1.157745e+01    2.408642e+00
  1.168858e+01    2.351722e+00
  1.179971e+01    2.371192e+00
  1.191084e+01    2.375803e+00
  1.202197e+01    2.352003e+00
  1.213309e+01    2.335935e+00
  1.224422e+01    2.345285e+00
  1.235535e+01    2.358309e+00
  1.246648e+01    2.323614e+00
  1.257761e+01    2.426757e+00
  1.268874e+01    2.464177e+00
  1.279987e+01    2.703914e+00
  1.291100e+01    3.273558e+00
  1.302213e+01    5.860799e+00
  1.313326e+01    1.508745e+01
  1.324438e+01    1.638366e+01
  1.335551e+01    5.459652e+00
  1.346664e+01    3.188331e+00
  1.357777e+01    2.543954e+00
  1.368890e+01    2.356189e+00
  1.380003e+01    2.238576e+00
  1.391116e+01    2.103379e+00
  1.402229e+01    2.069880e+00
  1.413342e+01    2.046861e+00
  1.424455e+01    1.989058e+00
  1.435568e+01    1.952419e+00
  1.446680e+01    1.974692e+00
  1.457793e+01    1.922011e+00
  1.468906e+01    1.958396e+00
  1.480019e+01    1.910857e+00
  1.491132e+01    1.986940e+00
  1.502245e+01    2.165424e+00
  1.513358e+01    3.258657e+00
  1.524471e+01    6.013396e+00
  1.535584e+01    5.034153e+00
  1.546697e+01    2.512646e+00
  1.557809e+01    1.976863e+00
  1.568922e+01    1.795877e+00
  1.580035e+01    1.665748e+00
  1.591148e+01    1.680530e+00
  1.602261e+01    1.637240e+00
  1.613374e+01    1.614024e+00
  1.624487e+01    1.602601e+00
  1.635600e+01    1.572254e+00
  1.646713e+01    1.540352e+00
  1.657826e+01    1.518229e+00
  1.668938e+01    1.522293e+00
  1.680051e+01    1.487865e+00
  1.691164e+01    1.493743e+00
  1.702277e+01    1.444762e+00
  1.713390e+01    1.432701e+00
  1.724503e+01    1.415372e+00
  1.735616e+01    1.395690e+00
  1.746729e+01    1.368921e+00
  1.757842e+01    1.377634e+00
  1.768955e+01    1.329633e+00
  1.780067e+01    1.356222e+00
  1.791180e+01    1.299829e+00
  1.802293e+01    1.297685e+00
  1.813406e+01    1.295052e+00
  1.824519e+01    1.283418e+00
  1.835632e+01    1.288071e+00
  1.846745e+01    1.269296e+00
  1.857858e+01    1.260158e+00
  1.868971e+01    1.248201e+00
  1.880084e+01    1.209423e+00
  1.891196e+01    1.250059e+00
  1.902309e+01    1.215884e+00
  1.913422e+01    1.217212e+00
  1.924535e+01    1.173007e+00
  1.935648e+01    1.214507e+00
  1.946761e+01    1.159620e+00
  1.957874e+01    1.165237e+00
  1.968987e+01    1.158067e+00
  1.980100e+01    1.159838e+00
  1.991213e+01    1.133890e+00
  2.002325e+01    1.123993e+00
  2.013438e+01    1.120590e+00
  2.024551e+01    1.133504e+00
  2.035664e+01    1.121392e+00
  2.046777e+01    1.135842e+00
  2.057890e+01    1.119684e+00
  2.069003e+01    1.117081e+00
  2.080116e+01    1.085217e+00
  2.091229e+01    1.116121e+00
  2.102342e+01    1.114478e+00
  2.113455e+01    1.107697e+00
  2.124567e+01    1.127795e+00
  2.135680e+01    1.153799e+00
  2.146793e+01    1.241916e+00
  2.157906e+01    1.450042e+00
  2.169019e+01    2.081665e+00
  2.180132e+01    4.829689e+00
  2.191245e+01    1.050217e+01
  2.202358e+01    6.128449e+00
  2.213471e+01    2.327090e+00
  2.224584e+01    1.493575e+00
  2.235696e+01    1.228626e+00
  2.246809e+01    1.093422e+00
  2.257922e+01    1.052750e+00
  2.269035e+01    9.826856e-01
  2.280148e+01    9.630169e-01
  2.291261e+01    9.289216e-01
  2.302374e+01    9.384428e-01
  2.313487e+01    9.056405e-01
  2.324600e+01    9.000228e-01
  2.335713e+01    8.762496e-01
  2.346825e+01    8.534021e-01
  2.357938e+01    8.510093e-01
  2.369051e+01    8.403915e-01
  2.380164e+01    8.193037e-01
  2.391277e+01    8.100072e-01
  2.402390e+01    8.056737e-01
  2.413503e+01    7.936758e-01
  2.424616e+01    7.903252e-01
  2.435729e+01    8.010235e-01
  2.446842e+01    8.080230e-01
  2.457954e+01    8.184980e-01
  2.469067e+01    8.020602e-01
  2.480180e+01    7.876738e-01
  2.491293e+01    8.194329e-01
  2.502406e+01    8.137990e-01
  2.513519e+01    8.288234e-01
  2.524632e+01    8.620870e-01
  2.535745e+01    8.897711e-01
  2.546858e+01    9.559898e-01
  2.557971e+01    1.061886e+00
  2.569083e+01    1.292929e+00
  2.580196e+01    2.192774e+00
  2.591309e+01    5.452069e+00
  2.602422e+01    8.958628e+00
  2.613535e+01    3.602428e+00
  2.624648e+01    1.720094e+00
  2.635761e+01    1.187697e+00
  2.646874e+01    1.041727e+00
  2.657987e+01    9.791553e-01
  2.669100e+01    9.343873e-01
  2.680212e+01    9.202267e-01
  2.691325e+01    9.412009e-01
  2.702438e+01    1.043227e+00
  2.713551e+01    1.439569e+00
  2.724664e+01    2.507187e+00
  2.735777e+01    1.770546e+00
  2.746890e+01    1.089602e+00
  2.758003e+01    9.134062e-01
  2.769116e+01    8.616671e-01
  2.780229e+01    8.401515e-01
  2.791342e+01    8.287063e-01
  2.802454e+01    8.133007e-01
  2.813567e+01    8.017400e-01
  2.824680e+01    8.107117e-01
  2.835793e+01    7.899662e-01
  2.846906e+01    7.898145e-01
  2.858019e+01    7.652768e-01
  2.869132e+01    7.488961e-01
  2.880245e+01    7.746434e-01
  2.891358e+01    7.530159e-01
  2.902471e+01    7.534924e-01
  2.913583e+01    7.469066e-01
  2.924696e+01    7.517982e-01
  2.935809e+01    7.548977e-01
  2.946922e+01    7.302493e-01
  2.958035e+01    7.134976e-01
  2.969148e+01    7.450019e-01
  2.980261e+01    7.385439e-01
  2.991374e+01    7.205611e-01
  3.002487e+01    7.364630e-01
  3.013600e+01    7.368596e-01
  3.024712e+01    7.476025e-01
  3.035825e+01    7.372426e-01
  3.046938e+01    7.212956e-01
  3.058051e+01    7.202345e-01
  3.069164e+01    7.439446e-01
  3.080277e+01    7.334700e-01
  3.091390e+01    7.183715e-01
  3.102503e+01    7.316982e-01
  3.113616e+01    7.379777e-01
  3.124729e+01    7.338950e-01
  3.135841e+01    7.563775e-01
  3.146954e+01    7.808113e-01
  3.158067e+01    7.850370e-01
  3.169180e+01    8.763191e-01
  3.180293e+01    1.184295e+00
  3.191406e+01    2.219551e+00
  3.202519e+01    2.170517e+00
  3.213632e+01    1.124540e+00
  3.224745e+01    8.682674e-01
  3.235858e+01    7.865958e-01
  3.246970e+01    7.497522e-01
  3.254908e+01    7.595922e-01

File: 2024-07-27_002_Ru-CGO-ex_Activtation_ramp_000002_data_000020.dat
# == pyFAI calibration ==
# Distance Sample to Detector: 0.4 m
# PONI: 9.750e-02, 1.135e-01 m
# Rotations: -0.000175 0.000000 -0.000000 rad
#
# == Fit2d calibration ==
# Distance Sample-beamCenter: 400.000 mm
# Center: x=1514.000, y=1300.000 pix
# Tilt: 0.010 deg  TiltPlanRot: 0.010 deg
#
# Detector Detector	 Spline= None	 PixelSize= 7.500e-05, 7.500e-05 m
#    Detector has a mask: False
#    Detector has a dark current: False
#    detector has a flat field: False
#
# Wavelength: 6.888e-11 m
# Mask applied: user provided
# Dark current applied: False
# Flat field applied: False
# Polarization factor: 0.99
# Normalization factor: 1.0
# --> /home/myspot/data/2024_07_Rosario/Ru-CGO-ex/2024-07-27_002_Ru-CGO-ex_Activtation_ramp_000002_data_000020.dat
#       q_nm^-1             I
  2.003187e-02    7.711996e-02
  1.311609e-01    2.826107e-02
  2.422899e-01    7.989109e-02
  3.534189e-01    3.690318e-02
  4.645479e-01    1.929263e-02
  5.756770e-01    8.729046e-03
  6.868060e-01    7.169709e-02
  7.979350e-01    1.247791e-01
  9.090640e-01    5.090039e-01
  1.020193e+00    1.069489e+00
  1.131322e+00    1.414752e+00
  1.242451e+00    2.141594e+00
  1.353580e+00    2.695014e+00
  1.464709e+00    2.663720e+00
  1.575838e+00    3.082986e+00
  1.686967e+00    2.986985e+00
  1.798096e+00    2.854448e+00
  1.909225e+00    2.798054e+00
  2.020354e+00    2.673799e+00
  2.131483e+00    2.824059e+00
  2.242612e+00    2.837194e+00
  2.353741e+00    2.791369e+00
  2.464870e+00    2.810184e+00
  2.575999e+00    2.805536e+00
  2.687128e+00    2.973808e+00
  2.798257e+00    2.879329e+00
  2.909386e+00    2.934344e+00
  3.020515e+00    3.003661e+00
  3.131644e+00    2.942191e+00
  3.242773e+00    3.036406e+00
  3.353902e+00    2.902576e+00
  3.465031e+00    2.946467e+00
  3.576160e+00    3.041625e+00
  3.687289e+00    3.022567e+00
  3.798418e+00    2.961368e+00
  3.909547e+00    3.019005e+00
  4.020676e+00    2.984213e+00
  4.131806e+00    3.035677e+00
  4.242935e+00    3.071385e+00
  4.354064e+00    3.000447e+00
  4.465193e+00    3.061049e+00
  4.576322e+00    3.054018e+00
  4.687451e+00    3.119453e+00
  4.798580e+00    3.068345e+00
  4.909709e+00    3.093567e+00
  5.020838e+00    3.156687e+00
  5.131967e+00    3.138112e+00
  5.243096e+00    3.232607e+00
  5.354225e+00    3.086975e+00
  5.465354e+00    3.103175e+00
  5.576483e+00    3.001718e+00
  5.687612e+00    3.032262e+00
  5.798741e+00    3.163717e+00
  5.909870e+00    2.932958e+00
  6.020999e+00    3.060990e+00
  6.132128e+00    3.122302e+00
  6.243257e+00    3.067103e+00
  6.354386e+00    3.074549e+00
  6.465515e+00    2.998103e+00
  6.576644e+00    2.952124e+00
  6.687773e+00    3.015496e+00
  6.798902e+00    3.088117e+00
  6.910031e+00    3.049605e+00
  7.021160e+00    2.995379e+00
  7.132289e+00    3.017857e+00
  7.243418e+00    2.905639e+00
  7.354547e+00    3.048707e+00
  7.465676e+00    3.036608e+00
  7.576805e+00    2.920051e+00
  7.687934e+00    2.997242e+00
  7.799063e+00    2.940435e+00
  7.910192e+00    2.966024e+00
  8.021321e+00    2.952418e+00
  8.132450e+00    2.966177e+00
  8.243579e+00    2.905522e+00
  8.354708e+00    2.899162e+00
  8.465837e+00    2.955165e+00
  8.576966e+00    2.881564e+00
  8.688095e+00    2.906878e+00
  8.799224e+00    2.894317e+00
  8.910353e+00    2.890224e+00
  9.021482e+00    2.842244e+00
  9.132611e+00    2.824184e+00
  9.243740e+00    2.831582e+00
  9.354869e+00    2.783778e+00
  9.465998e+00    2.804645e+00
  9.577127e+00    2.811716e+00
  9.688256e+00    2.744788e+00
  9.799385e+00    2.715446e+00
  9.910514e+00    2.719164e+00
  1.002164e+01    2.718720e+00
  1.013277e+01    2.669953e+00
  1.024390e+01    2.637998e+00
  1.035503e+01    2.645866e+00
  1.046616e+01    2.629449e+00
  1.057729e+01    2.601989e+00
  1.068842e+01    2.557763e+00
  1.079955e+01    2.606080e+00
  1.091068e+01    2.529833e+00
  1.102180e+01    2.539755e+00
  1.113293e+01    2.467017e+00
  1.124406e+01    2.474159e+00
  1.135519e+01    2.413512e+00
  1.146632e+01    2.417976e+00
  1.157745e+01    2.396732e+00
  1.168858e+01    2.417804e+00
  1.179971e+01    2.363481e+00
  1.191084e+01    2.335904e+00
  1.202197e+01    2.397809e+00
  1.213309e+01    2.352441e+00
  1.224422e+01    2.289983e+00
  1.235535e+01    2.341810e+00
  1.246648e+01    2.383452e+00
  1.257761e+01    2.405062e+00
  1.268874e+01    2.477907e+00
  1.279987e+01    2.723142e+00
  1.291100e+01    3.277010e+00
  1.302213e+01    5.859665e+00
  1.313326e+01    1.503639e+01
  1.324438e+01    1.638979e+01
  1.335551e+01    5.512537e+00
  1.346664e+01    3.189791e+00
  1.357777e+01    2.566021e+00
  1.368890e+01    2.373112e+00
  1.380003e+01    2.206845e+00
  1.391116e+01    2.125081e+00
  1.402229e+01    2.096509e+00
  1.413342e+01    2.043625e+00
  1.424455e+01    2.007336e+00
  1.435568e+01    2.006678e+00
  1.446680e+01    1.961243e+00
  1.457793e+01    1.916869e+00
  1.468906e+01    1.905810e+00
  1.480019e+01    1.944612e+00
  1.491132e+01    1.966416e+00
  1.502245e+01    2.199004e+00
  1.513358e+01    3.175611e+00
  1.524471e+01    6.011422e+00
  1.535584e+01    5.046831e+00
  1.546697e+01    2.542456e+00
  1.557809e+01    2.003376e+00
  1.568922e+01    1.811527e+00
  1.580035e+01    1.736844e+00
  1.591148e+01    1.656681e+00
  1.602261e+01    1.639235e+00
  1.613374e+01    1.632578e+00
  1.624487e+01    1.574318e+00
  1.635600e+01    1.522210e+00
  1.646713e+01    1.534883e+00
  1.657826e+01    1.512398e+00
  1.668938e+01    1.508969e+00
  1.680051e+01    1.465103e+00
  1.691164e+01    1.457035e+00
  1.702277e+01    1.426422e+00
  1.713390e+01    1.410130e+00
  1.724503e+01    1.429823e+00
  1.735616e+01    1.379388e+00
  1.746729e+01    1.377014e+00
  1.757842e+01    1.397807e+00
  1.768955e+01    1.383334e+00
  1.780067e+01    1.331637e+00
  1.791180e+01    1.319086e+00
  1.802293e+01    1.326484e+00
  1.813406e+01    1.333354e+00
  1.824519e+01    1.305305e+00
  1.835632e+01    1.303306e+00
  1.846745e+01    1.311010e+00
  1.857858e+01    1.242359e+00
  1.868971e+01    1.253281e+00
  1.880084e+01    1.248722e+00
  1.891196e+01    1.226440e+00
  1.902309e+01    1.200112e+00
  1.913422e+01    1.203421e+00
  1.924535e+01    1.207878e+00
  1.935648e+01    1.191504e+00
  1.946761e+01    1.183749e+00
  1.957874e+01    1.185937e+00
  1.968987e+01    1.147356e+00
  1.980100e+01    1.148813e+00
  1.991213e+01    1.144210e+00
  2.002325e+01    1.146124e+00
  2.013438e+01    1.116436e+00
  2.024551e+01    1.102216e+00
  2.035664e+01    1.157291e+00
  2.046777e+01    1.105980e+00
  2.057890e+01    1.101183e+00
  2.069003e+01    1.105381e+00
  2.080116e+01    1.075760e+00
  2.091229e+01    1.098966e+00
  2.102342e+01    1.084687e+00
  2.113455e+01    1.101701e+00
  2.124567e+01    1.129191e+00
  2.135680e+01    1.157920e+00
  2.146793e+01    1.250351e+00
  2.157906e+01    1.451110e+00
  2.169019e+01    2.077082e+00
  2.180132e+01    4.793278e+00
  2.191245e+01    1.051997e+01
  2.202358e+01    6.164164e+00
  2.213471e+01    2.329764e+00
  2.224584e+01    1.493513e+00
  2.235696e+01    1.197157e+00
  2.246809e+01    1.091910e+00
  2.257922e+01    1.009261e+00
  2.269035e+01    1.002316e+00
  2.280148e+01    9.742034e-01
  2.291261e+01    9.344960e-01
  2.302374e+01    9.134119e-01
  2.313487e+01    9.087099e-01
  2.324600e+01    8.929617e-01
  2.335713e+01    8.745872e-01
  2.346825e+01    8.669457e-01
  2.357938e+01    8.614426e-01
  2.369051e+01    8.600951e-01
  2.380164e+01    8.209959e-01
  2.391277e+01    8.405140e-01
  2.402390e+01    8.060258e-01
  2.413503e+01    7.988911e-01
  2.424616e+01    7.891403e-01
  2.435729e+01    8.230221e-01
  2.446842e+01    8.095546e-01
  2.457954e+01    7.965714e-01
  2.469067e+01    8.072742e-01
  2.480180e+01    8.084773e-01
  2.491293e+01    8.457937e-01
  2.502406e+01    7.875655e-01
  2.513519e+01    8.385134e-01
  2.524632e+01    8.520622e-01
  2.535745e+01    9.045870e-01
  2.546858e+01    9.660914e-01
  2.557971e+01    1.057139e+00
  2.569083e+01    1.330767e+00
  2.580196e+01    2.207209e+00
  2.591309e+01    5.416594e+00
  2.602422e+01    8.957556e+00
  2.613535e+01    3.638362e+00
  2.624648e+01    1.698756e+00
  2.635761e+01    1.183226e+00
  2.646874e+01    1.030636e+00
  2.657987e+01    9.775691e-01
  2.669100e+01    9.457082e-01
  2.680212e+01    9.161826e-01
  2.691325e+01    9.535522e-01
  2.702438e+01    1.016527e+00
  2.713551e+01    1.450267e+00
  2.724664e+01    2.534748e+00
  2.735777e+01    1.845805e+00
  2.746890e+01    1.120936e+00
  2.758003e+01    9.132276e-01
  2.769116e+01    8.533362e-01
  2.780229e+01    8.513749e-01
  2.791342e+01    8.341334e-01
  2.802454e+01    7.793925e-01
  2.813567e+01    8.064633e-01
  2.824680e+01    7.875243e-01
  2.835793e+01    7.890443e-01
  2.846906e+01    7.826173e-01
  2.858019e+01    7.816096e-01
  2.869132e+01    7.522151e-01
  2.880245e+01    7.611135e-01
  2.891358e+01    7.386190e-01
  2.902471e+01    7.458662e-01
  2.913583e+01    7.529484e-01
  2.924696e+01    7.490297e-01
  2.935809e+01    7.427525e-01
  2.946922e+01    7.559736e-01
  2.958035e+01    7.220625e-01
  2.969148e+01    7.199682e-01
  2.980261e+01    7.246727e-01
  2.991374e+01    7.095024e-01
  3.002487e+01    7.303312e-01
  3.013600e+01    7.459769e-01
  3.024712e+01    7.154322e-01
  3.035825e+01    7.413514e-01
  3.046938e+01    7.146924e-01
  3.058051e+01    6.998425e-01
  3.069164e+01    7.405024e-01
  3.080277e+01    7.245139e-01
  3.091390e+01    7.254072e-01
  3.102503e+01    7.276644e-01
  3.113616e+01    7.367569e-01
  3.124729e+01    7.477276e-01
  3.135841e+01    7.385573e-01
  3.146954e+01    7.600023e-01
  3.158067e+01    7.906325e-01
  3.169180e+01    8.897831e-01
  3.180293e+01    1.196498e+00
  3.191406e+01    2.186646e+00
  3.202519e+01    2.186201e+00
  3.213632e+01    1.137650e+00
  3.224745e+01    9.036257e-01
  3.235858e+01    8.070176e-01
  3.246970e+01    7.571461e-01
  3.254908e+01    7.438735e-01