Folder: myspot_2024_07/XRD/Activation ramp (part 6)

File: 2024-07-27_002_Ru-CGO-ex_Activtation_ramp_000002_data_000023.dat
# == pyFAI calibration ==
# Distance Sample to Detector: 0.4 m
# PONI: 9.750e-02, 1.135e-01 m
# Rotations: -0.000175 0.000000 -0.000000 rad
#
# == Fit2d calibration ==
# Distance Sample-beamCenter: 400.000 mm
# Center: x=1514.000, y=1300.000 pix
# Tilt: 0.010 deg  TiltPlanRot: 0.010 deg
#
# Detector Detector	 Spline= None	 PixelSize= 7.500e-05, 7.500e-05 m
#    Detector has a mask: False
#    Detector has a dark current: False
#    detector has a flat field: False
#
# Wavelength: 6.888e-11 m
# Mask applied: user provided
# Dark current applied: False
# Flat field applied: False
# Polarization factor: 0.99
# Normalization factor: 1.0
# --> /home/myspot/data/2024_07_Rosario/Ru-CGO-ex/2024-07-27_002_Ru-CGO-ex_Activtation_ramp_000002_data_000023.dat
#       q_nm^-1             I
  2.003187e-02    1.542525e-01
  1.311609e-01    7.487649e-02
  2.422899e-01    7.012007e-03
  3.534189e-01    3.459184e-02
  4.645479e-01    6.713553e-02
  5.756770e-01    3.870570e-02
  6.868060e-01    4.758324e-02
  7.979350e-01    1.728759e-01
  9.090640e-01    5.078548e-01
  1.020193e+00    1.199818e+00
  1.131322e+00    1.500829e+00
  1.242451e+00    2.326597e+00
  1.353580e+00    2.608416e+00
  1.464709e+00    2.888865e+00
  1.575838e+00    3.112266e+00
  1.686967e+00    2.845648e+00
  1.798096e+00    2.908844e+00
  1.909225e+00    2.758842e+00
  2.020354e+00    2.796912e+00
  2.131483e+00    2.886542e+00
  2.242612e+00    2.778529e+00
  2.353741e+00    2.832038e+00
  2.464870e+00    2.824325e+00
  2.575999e+00    2.924101e+00
  2.687128e+00    2.871175e+00
  2.798257e+00    2.856747e+00
  2.909386e+00    2.962845e+00
  3.020515e+00    2.958464e+00
  3.131644e+00    2.832548e+00
  3.242773e+00    2.923049e+00
  3.353902e+00    2.972625e+00
  3.465031e+00    3.031430e+00
  3.576160e+00    2.906584e+00
  3.687289e+00    2.928836e+00
  3.798418e+00    3.016362e+00
  3.909547e+00    3.033496e+00
  4.020676e+00    3.046421e+00
  4.131806e+00    3.079584e+00
  4.242935e+00    3.037004e+00
  4.354064e+00    3.140043e+00
  4.465193e+00    3.088621e+00
  4.576322e+00    3.080408e+00
  4.687451e+00    3.098895e+00
  4.798580e+00    3.189370e+00
  4.909709e+00    3.182726e+00
  5.020838e+00    3.145563e+00
  5.131967e+00    3.108487e+00
  5.243096e+00    3.174862e+00
  5.354225e+00    3.102691e+00
  5.465354e+00    3.122503e+00
  5.576483e+00    3.113107e+00
  5.687612e+00    3.093192e+00
  5.798741e+00    3.120466e+00
  5.909870e+00    3.021627e+00
  6.020999e+00    3.024660e+00
  6.132128e+00    3.153017e+00
  6.243257e+00    3.128768e+00
  6.354386e+00    2.959828e+00
  6.465515e+00    3.040599e+00
  6.576644e+00    3.082206e+00
  6.687773e+00    3.028561e+00
  6.798902e+00    3.041407e+00
  6.910031e+00    3.066525e+00
  7.021160e+00    3.048075e+00
  7.132289e+00    2.993006e+00
  7.243418e+00    2.980569e+00
  7.354547e+00    3.091156e+00
  7.465676e+00    3.022092e+00
  7.576805e+00    2.967190e+00
  7.687934e+00    2.952438e+00
  7.799063e+00    2.930147e+00
  7.910192e+00    2.962550e+00
  8.021321e+00    2.924275e+00
  8.132450e+00    2.954815e+00
  8.243579e+00    2.973069e+00
  8.354708e+00    2.893753e+00
  8.465837e+00    2.937003e+00
  8.576966e+00    2.900138e+00
  8.688095e+00    2.911582e+00
  8.799224e+00    2.824622e+00
  8.910353e+00    2.914747e+00
  9.021482e+00    2.869709e+00
  9.132611e+00    2.859687e+00
  9.243740e+00    2.776963e+00
  9.354869e+00    2.782242e+00
  9.465998e+00    2.833495e+00
  9.577127e+00    2.734777e+00
  9.688256e+00    2.730714e+00
  9.799385e+00    2.728983e+00
  9.910514e+00    2.716282e+00
  1.002164e+01    2.690185e+00
  1.013277e+01    2.651076e+00
  1.024390e+01    2.678396e+00
  1.035503e+01    2.655575e+00
  1.046616e+01    2.603016e+00
  1.057729e+01    2.617116e+00
  1.068842e+01    2.562540e+00
  1.079955e+01    2.565741e+00
  1.091068e+01    2.504458e+00
  1.102180e+01    2.514174e+00
  1.113293e+01    2.471999e+00
  1.124406e+01    2.439882e+00
  1.135519e+01    2.463188e+00
  1.146632e+01    2.436995e+00
  1.157745e+01    2.408736e+00
  1.168858e+01    2.363155e+00
  1.179971e+01    2.403945e+00
  1.191084e+01    2.380647e+00
  1.202197e+01    2.326559e+00
  1.213309e+01    2.342209e+00
  1.224422e+01    2.369765e+00
  1.235535e+01    2.352093e+00
  1.246648e+01    2.360962e+00
  1.257761e+01    2.413398e+00
  1.268874e+01    2.527429e+00
  1.279987e+01    2.682128e+00
  1.291100e+01    3.302327e+00
  1.302213e+01    5.883276e+00
  1.313326e+01    1.499195e+01
  1.324438e+01    1.616895e+01
  1.335551e+01    5.397716e+00
  1.346664e+01    3.149839e+00
  1.357777e+01    2.586885e+00
  1.368890e+01    2.319030e+00
  1.380003e+01    2.247607e+00
  1.391116e+01    2.121356e+00
  1.402229e+01    2.109900e+00
  1.413342e+01    2.077995e+00
  1.424455e+01    2.017578e+00
  1.435568e+01    1.978261e+00
  1.446680e+01    1.952998e+00
  1.457793e+01    1.891332e+00
  1.468906e+01    1.908159e+00
  1.480019e+01    1.883033e+00
  1.491132e+01    1.939105e+00
  1.502245e+01    2.192176e+00
  1.513358e+01    3.216411e+00
  1.524471e+01    5.955463e+00
  1.535584e+01    4.911590e+00
  1.546697e+01    2.458881e+00
  1.557809e+01    1.968703e+00
  1.568922e+01    1.774494e+00
  1.580035e+01    1.704858e+00
  1.591148e+01    1.644845e+00
  1.602261e+01    1.671638e+00
  1.613374e+01    1.598555e+00
  1.624487e+01    1.597468e+00
  1.635600e+01    1.575713e+00
  1.646713e+01    1.534639e+00
  1.657826e+01    1.527274e+00
  1.668938e+01    1.539483e+00
  1.680051e+01    1.502917e+00
  1.691164e+01    1.465913e+00
  1.702277e+01    1.466414e+00
  1.713390e+01    1.426668e+00
  1.724503e+01    1.397827e+00
  1.735616e+01    1.404568e+00
  1.746729e+01    1.392210e+00
  1.757842e+01    1.356097e+00
  1.768955e+01    1.378134e+00
  1.780067e+01    1.343111e+00
  1.791180e+01    1.361370e+00
  1.802293e+01    1.333371e+00
  1.813406e+01    1.304432e+00
  1.824519e+01    1.300734e+00
  1.835632e+01    1.269910e+00
  1.846745e+01    1.281291e+00
  1.857858e+01    1.255058e+00
  1.868971e+01    1.249827e+00
  1.880084e+01    1.243886e+00
  1.891196e+01    1.239323e+00
  1.902309e+01    1.206930e+00
  1.913422e+01    1.179316e+00
  1.924535e+01    1.220412e+00
  1.935648e+01    1.182449e+00
  1.946761e+01    1.206132e+00
  1.957874e+01    1.173434e+00
  1.968987e+01    1.177894e+00
  1.980100e+01    1.134946e+00
  1.991213e+01    1.125593e+00
  2.002325e+01    1.123011e+00
  2.013438e+01    1.126800e+00
  2.024551e+01    1.126375e+00
  2.035664e+01    1.098813e+00
  2.046777e+01    1.122284e+00
  2.057890e+01    1.097860e+00
  2.069003e+01    1.097118e+00
  2.080116e+01    1.092807e+00
  2.091229e+01    1.096974e+00
  2.102342e+01    1.109142e+00
  2.113455e+01    1.098860e+00
  2.124567e+01    1.141929e+00
  2.135680e+01    1.164363e+00
  2.146793e+01    1.245506e+00
  2.157906e+01    1.465331e+00
  2.169019e+01    2.114696e+00
  2.180132e+01    4.828888e+00
  2.191245e+01    1.055360e+01
  2.202358e+01    6.058921e+00
  2.213471e+01    2.340019e+00
  2.224584e+01    1.489817e+00
  2.235696e+01    1.200369e+00
  2.246809e+01    1.088516e+00
  2.257922e+01    1.014148e+00
  2.269035e+01    9.632645e-01
  2.280148e+01    9.533124e-01
  2.291261e+01    9.436940e-01
  2.302374e+01    9.117711e-01
  2.313487e+01    9.054934e-01
  2.324600e+01    8.903251e-01
  2.335713e+01    8.848748e-01
  2.346825e+01    8.870094e-01
  2.357938e+01    8.624325e-01
  2.369051e+01    8.557210e-01
  2.380164e+01    8.006512e-01
  2.391277e+01    8.314482e-01
  2.402390e+01    7.986544e-01
  2.413503e+01    8.054529e-01
  2.424616e+01    7.993891e-01
  2.435729e+01    8.017552e-01
  2.446842e+01    7.939521e-01
  2.457954e+01    8.158962e-01
  2.469067e+01    8.140413e-01
  2.480180e+01    7.935426e-01
  2.491293e+01    8.012857e-01
  2.502406e+01    8.356656e-01
  2.513519e+01    8.324444e-01
  2.524632e+01    8.710040e-01
  2.535745e+01    8.825368e-01
  2.546858e+01    9.556807e-01
  2.557971e+01    1.083953e+00
  2.569083e+01    1.338058e+00
  2.580196e+01    2.195505e+00
  2.591309e+01    5.606813e+00
  2.602422e+01    8.890980e+00
  2.613535e+01    3.571138e+00
  2.624648e+01    1.717467e+00
  2.635761e+01    1.172381e+00
  2.646874e+01    1.038336e+00
  2.657987e+01    9.747576e-01
  2.669100e+01    9.371247e-01
  2.680212e+01    9.295952e-01
  2.691325e+01    9.358362e-01
  2.702438e+01    1.029128e+00
  2.713551e+01    1.460172e+00
  2.724664e+01    2.567289e+00
  2.735777e+01    1.771437e+00
  2.746890e+01    1.118488e+00
  2.758003e+01    9.346869e-01
  2.769116e+01    8.596303e-01
  2.780229e+01    8.509468e-01
  2.791342e+01    8.152160e-01
  2.802454e+01    8.126903e-01
  2.813567e+01    7.891392e-01
  2.824680e+01    8.147604e-01
  2.835793e+01    8.067147e-01
  2.846906e+01    7.945694e-01
  2.858019e+01    7.979508e-01
  2.869132e+01    7.676807e-01
  2.880245e+01    7.558581e-01
  2.891358e+01    7.536743e-01
  2.902471e+01    7.406663e-01
  2.913583e+01    7.630916e-01
  2.924696e+01    7.393143e-01
  2.935809e+01    7.433661e-01
  2.946922e+01    7.334349e-01
  2.958035e+01    7.294802e-01
  2.969148e+01    7.270156e-01
  2.980261e+01    7.350547e-01
  2.991374e+01    7.350826e-01
  3.002487e+01    7.374292e-01
  3.013600e+01    7.337744e-01
  3.024712e+01    7.327925e-01
  3.035825e+01    7.297650e-01
  3.046938e+01    7.383875e-01
  3.058051e+01    7.223246e-01
  3.069164e+01    7.383624e-01
  3.080277e+01    7.554643e-01
  3.091390e+01    7.235073e-01
  3.102503e+01    7.336135e-01
  3.113616e+01    7.257640e-01
  3.124729e+01    7.402229e-01
  3.135841e+01    7.412214e-01
  3.146954e+01    7.582777e-01
  3.158067e+01    8.056110e-01
  3.169180e+01    9.125211e-01
  3.180293e+01    1.202054e+00
  3.191406e+01    2.236876e+00
  3.202519e+01    2.129819e+00
  3.213632e+01    1.118399e+00
  3.224745e+01    8.634275e-01
  3.235858e+01    7.683882e-01
  3.246970e+01    7.595485e-01
  3.254908e+01    7.469566e-01

File: 2024-07-27_002_Ru-CGO-ex_Activtation_ramp_000002_data_000024.dat
# == pyFAI calibration ==
# Distance Sample to Detector: 0.4 m
# PONI: 9.750e-02, 1.135e-01 m
# Rotations: -0.000175 0.000000 -0.000000 rad
#
# == Fit2d calibration ==
# Distance Sample-beamCenter: 400.000 mm
# Center: x=1514.000, y=1300.000 pix
# Tilt: 0.010 deg  TiltPlanRot: 0.010 deg
#
# Detector Detector	 Spline= None	 PixelSize= 7.500e-05, 7.500e-05 m
#    Detector has a mask: False
#    Detector has a dark current: False
#    detector has a flat field: False
#
# Wavelength: 6.888e-11 m
# Mask applied: user provided
# Dark current applied: False
# Flat field applied: False
# Polarization factor: 0.99
# Normalization factor: 1.0
# --> /home/myspot/data/2024_07_Rosario/Ru-CGO-ex/2024-07-27_002_Ru-CGO-ex_Activtation_ramp_000002_data_000024.dat
#       q_nm^-1             I
  2.003187e-02    0.000000e+00
  1.311609e-01    6.332428e-02
  2.422899e-01    1.568219e-02
  3.534189e-01    3.570992e-02
  4.645479e-01    5.651355e-02
  5.756770e-01    3.013836e-02
  6.868060e-01    4.333646e-02
  7.979350e-01    1.467698e-01
  9.090640e-01    5.581551e-01
  1.020193e+00    1.031065e+00
  1.131322e+00    1.364105e+00
  1.242451e+00    2.227299e+00
  1.353580e+00    2.481624e+00
  1.464709e+00    2.817273e+00
  1.575838e+00    2.947418e+00
  1.686967e+00    2.905677e+00
  1.798096e+00    2.763563e+00
  1.909225e+00    2.875960e+00
  2.020354e+00    2.749708e+00
  2.131483e+00    2.765554e+00
  2.242612e+00    2.670870e+00
  2.353741e+00    2.806777e+00
  2.464870e+00    2.819693e+00
  2.575999e+00    2.783941e+00
  2.687128e+00    2.841991e+00
  2.798257e+00    2.774323e+00
  2.909386e+00    2.891587e+00
  3.020515e+00    2.898170e+00
  3.131644e+00    2.760841e+00
  3.242773e+00    2.999856e+00
  3.353902e+00    2.900341e+00
  3.465031e+00    2.999480e+00
  3.576160e+00    2.991016e+00
  3.687289e+00    2.949016e+00
  3.798418e+00    3.004846e+00
  3.909547e+00    2.984662e+00
  4.020676e+00    3.021002e+00
  4.131806e+00    3.102438e+00
  4.242935e+00    3.142289e+00
  4.354064e+00    3.065763e+00
  4.465193e+00    3.099870e+00
  4.576322e+00    3.076962e+00
  4.687451e+00    3.055350e+00
  4.798580e+00    3.135480e+00
  4.909709e+00    3.225185e+00
  5.020838e+00    3.126288e+00
  5.131967e+00    3.148258e+00
  5.243096e+00    3.105477e+00
  5.354225e+00    3.172352e+00
  5.465354e+00    3.168012e+00
  5.576483e+00    3.081704e+00
  5.687612e+00    3.052052e+00
  5.798741e+00    3.046398e+00
  5.909870e+00    3.042328e+00
  6.020999e+00    3.040289e+00
  6.132128e+00    3.168796e+00
  6.243257e+00    3.036726e+00
  6.354386e+00    3.031374e+00
  6.465515e+00    3.055881e+00
  6.576644e+00    3.071031e+00
  6.687773e+00    3.063534e+00
  6.798902e+00    3.017430e+00
  6.910031e+00    3.004220e+00
  7.021160e+00    3.014561e+00
  7.132289e+00    3.056299e+00
  7.243418e+00    3.004350e+00
  7.354547e+00    2.974904e+00
  7.465676e+00    3.053594e+00
  7.576805e+00    2.906360e+00
  7.687934e+00    2.997981e+00
  7.799063e+00    2.917224e+00
  7.910192e+00    2.960434e+00
  8.021321e+00    2.913622e+00
  8.132450e+00    2.967264e+00
  8.243579e+00    2.978066e+00
  8.354708e+00    2.915971e+00
  8.465837e+00    2.939895e+00
  8.576966e+00    2.894784e+00
  8.688095e+00    2.913151e+00
  8.799224e+00    2.856633e+00
  8.910353e+00    2.852220e+00
  9.021482e+00    2.862567e+00
  9.132611e+00    2.795913e+00
  9.243740e+00    2.802509e+00
  9.354869e+00    2.771968e+00
  9.465998e+00    2.802155e+00
  9.577127e+00    2.789095e+00
  9.688256e+00    2.709953e+00
  9.799385e+00    2.731613e+00
  9.910514e+00    2.747402e+00
  1.002164e+01    2.653976e+00
  1.013277e+01    2.646644e+00
  1.024390e+01    2.675260e+00
  1.035503e+01    2.665781e+00
  1.046616e+01    2.669408e+00
  1.057729e+01    2.602942e+00
  1.068842e+01    2.584765e+00
  1.079955e+01    2.532227e+00
  1.091068e+01    2.509096e+00
  1.102180e+01    2.537388e+00
  1.113293e+01    2.501626e+00
  1.124406e+01    2.502097e+00
  1.135519e+01    2.469925e+00
  1.146632e+01    2.443964e+00
  1.157745e+01    2.383837e+00
  1.168858e+01    2.369598e+00
  1.179971e+01    2.346763e+00
  1.191084e+01    2.405818e+00
  1.202197e+01    2.323008e+00
  1.213309e+01    2.338468e+00
  1.224422e+01    2.369484e+00
  1.235535e+01    2.327841e+00
  1.246648e+01    2.403351e+00
  1.257761e+01    2.398741e+00
  1.268874e+01    2.506290e+00
  1.279987e+01    2.694518e+00
  1.291100e+01    3.254141e+00
  1.302213e+01    5.890756e+00
  1.313326e+01    1.507596e+01
  1.324438e+01    1.621500e+01
  1.335551e+01    5.375518e+00
  1.346664e+01    3.192574e+00
  1.357777e+01    2.612236e+00
  1.368890e+01    2.338544e+00
  1.380003e+01    2.178191e+00
  1.391116e+01    2.132187e+00
  1.402229e+01    2.103532e+00
  1.413342e+01    2.037960e+00
  1.424455e+01    2.014945e+00
  1.435568e+01    1.961258e+00
  1.446680e+01    1.957512e+00
  1.457793e+01    1.930965e+00
  1.468906e+01    1.919766e+00
  1.480019e+01    1.912803e+00
  1.491132e+01    1.921803e+00
  1.502245e+01    2.199986e+00
  1.513358e+01    3.243387e+00
  1.524471e+01    6.033691e+00
  1.535584e+01    5.001634e+00
  1.546697e+01    2.485217e+00
  1.557809e+01    1.958738e+00
  1.568922e+01    1.784062e+00
  1.580035e+01    1.729741e+00
  1.591148e+01    1.684647e+00
  1.602261e+01    1.626634e+00
  1.613374e+01    1.644921e+00
  1.624487e+01    1.544547e+00
  1.635600e+01    1.539767e+00
  1.646713e+01    1.550142e+00
  1.657826e+01    1.542218e+00
  1.668938e+01    1.488967e+00
  1.680051e+01    1.488084e+00
  1.691164e+01    1.479152e+00
  1.702277e+01    1.475656e+00
  1.713390e+01    1.448554e+00
  1.724503e+01    1.412186e+00
  1.735616e+01    1.403928e+00
  1.746729e+01    1.354210e+00
  1.757842e+01    1.367919e+00
  1.768955e+01    1.345585e+00
  1.780067e+01    1.347279e+00
  1.791180e+01    1.318001e+00
  1.802293e+01    1.286568e+00
  1.813406e+01    1.300206e+00
  1.824519e+01    1.261649e+00
  1.835632e+01    1.291607e+00
  1.846745e+01    1.275833e+00
  1.857858e+01    1.265624e+00
  1.868971e+01    1.242290e+00
  1.880084e+01    1.242336e+00
  1.891196e+01    1.211587e+00
  1.902309e+01    1.231666e+00
  1.913422e+01    1.220200e+00
  1.924535e+01    1.182867e+00
  1.935648e+01    1.189734e+00
  1.946761e+01    1.183381e+00
  1.957874e+01    1.161655e+00
  1.968987e+01    1.151960e+00
  1.980100e+01    1.134441e+00
  1.991213e+01    1.125413e+00
  2.002325e+01    1.104556e+00
  2.013438e+01    1.104153e+00
  2.024551e+01    1.106528e+00
  2.035664e+01    1.117476e+00
  2.046777e+01    1.102365e+00
  2.057890e+01    1.091758e+00
  2.069003e+01    1.107608e+00
  2.080116e+01    1.098588e+00
  2.091229e+01    1.114123e+00
  2.102342e+01    1.076100e+00
  2.113455e+01    1.097725e+00
  2.124567e+01    1.140146e+00
  2.135680e+01    1.150369e+00
  2.146793e+01    1.226663e+00
  2.157906e+01    1.446252e+00
  2.169019e+01    2.114370e+00
  2.180132e+01    4.840799e+00
  2.191245e+01    1.063075e+01
  2.202358e+01    6.012314e+00
  2.213471e+01    2.345445e+00
  2.224584e+01    1.476981e+00
  2.235696e+01    1.201132e+00
  2.246809e+01    1.088517e+00
  2.257922e+01    1.012421e+00
  2.269035e+01    1.003837e+00
  2.280148e+01    9.593499e-01
  2.291261e+01    9.413804e-01
  2.302374e+01    9.238998e-01
  2.313487e+01    9.043306e-01
  2.324600e+01    8.739912e-01
  2.335713e+01    8.698288e-01
  2.346825e+01    8.671872e-01
  2.357938e+01    8.471299e-01
  2.369051e+01    8.491052e-01
  2.380164e+01    8.405831e-01
  2.391277e+01    8.216299e-01
  2.402390e+01    8.012103e-01
  2.413503e+01    7.841087e-01
  2.424616e+01    7.949536e-01
  2.435729e+01    8.261467e-01
  2.446842e+01    7.835879e-01
  2.457954e+01    7.946280e-01
  2.469067e+01    8.187929e-01
  2.480180e+01    8.203920e-01
  2.491293e+01    8.149300e-01
  2.502406e+01    8.220497e-01
  2.513519e+01    8.267420e-01
  2.524632e+01    8.566017e-01
  2.535745e+01    8.963897e-01
  2.546858e+01    9.484910e-01
  2.557971e+01    1.073315e+00
  2.569083e+01    1.321620e+00
  2.580196e+01    2.218588e+00
  2.591309e+01    5.526265e+00
  2.602422e+01    8.969262e+00
  2.613535e+01    3.544622e+00
  2.624648e+01    1.669907e+00
  2.635761e+01    1.187501e+00
  2.646874e+01    1.028957e+00
  2.657987e+01    9.434097e-01
  2.669100e+01    9.318716e-01
  2.680212e+01    9.205138e-01
  2.691325e+01    9.424307e-01
  2.702438e+01    1.034833e+00
  2.713551e+01    1.428476e+00
  2.724664e+01    2.508447e+00
  2.735777e+01    1.804535e+00
  2.746890e+01    1.101373e+00
  2.758003e+01    9.236686e-01
  2.769116e+01    8.397284e-01
  2.780229e+01    8.482317e-01
  2.791342e+01    8.380072e-01
  2.802454e+01    8.262172e-01
  2.813567e+01    7.826481e-01
  2.824680e+01    7.942889e-01
  2.835793e+01    7.910972e-01
  2.846906e+01    7.780848e-01
  2.858019e+01    7.654039e-01
  2.869132e+01    7.698523e-01
  2.880245e+01    7.676306e-01
  2.891358e+01    7.670604e-01
  2.902471e+01    7.486253e-01
  2.913583e+01    7.587482e-01
  2.924696e+01    7.425762e-01
  2.935809e+01    7.493641e-01
  2.946922e+01    7.374483e-01
  2.958035e+01    7.322360e-01
  2.969148e+01    7.339239e-01
  2.980261e+01    7.269833e-01
  2.991374e+01    7.390465e-01
  3.002487e+01    7.351580e-01
  3.013600e+01    7.289196e-01
  3.024712e+01    7.059792e-01
  3.035825e+01    7.186513e-01
  3.046938e+01    7.292930e-01
  3.058051e+01    7.346029e-01
  3.069164e+01    7.300138e-01
  3.080277e+01    7.212312e-01
  3.091390e+01    7.459290e-01
  3.102503e+01    7.111268e-01
  3.113616e+01    7.659032e-01
  3.124729e+01    7.277337e-01
  3.135841e+01    7.337111e-01
  3.146954e+01    7.732079e-01
  3.158067e+01    7.872868e-01
  3.169180e+01    8.985336e-01
  3.180293e+01    1.218651e+00
  3.191406e+01    2.240900e+00
  3.202519e+01    2.120154e+00
  3.213632e+01    1.126455e+00
  3.224745e+01    8.724458e-01
  3.235858e+01    7.695981e-01
  3.246970e+01    7.625911e-01
  3.254908e+01    7.464383e-01