Folder: myspot_2024_07/XRD/Activation ramp (part 3)

File: 2024-07-27_002_Ru-CGO-ex_Activtation_ramp_000002_data_000011.dat
# == pyFAI calibration ==
# Distance Sample to Detector: 0.4 m
# PONI: 9.750e-02, 1.135e-01 m
# Rotations: -0.000175 0.000000 -0.000000 rad
#
# == Fit2d calibration ==
# Distance Sample-beamCenter: 400.000 mm
# Center: x=1514.000, y=1300.000 pix
# Tilt: 0.010 deg  TiltPlanRot: 0.010 deg
#
# Detector Detector	 Spline= None	 PixelSize= 7.500e-05, 7.500e-05 m
#    Detector has a mask: False
#    Detector has a dark current: False
#    detector has a flat field: False
#
# Wavelength: 6.888e-11 m
# Mask applied: user provided
# Dark current applied: False
# Flat field applied: False
# Polarization factor: 0.99
# Normalization factor: 1.0
# --> /home/myspot/data/2024_07_Rosario/Ru-CGO-ex/2024-07-27_002_Ru-CGO-ex_Activtation_ramp_000002_data_000011.dat
#       q_nm^-1             I
  2.003187e-02    0.000000e+00
  1.311609e-01    1.399929e-02
  2.422899e-01    2.329947e-02
  3.534189e-01    3.859944e-02
  4.645479e-01    5.363865e-02
  5.756770e-01    3.815034e-02
  6.868060e-01    3.920588e-02
  7.979350e-01    1.471316e-01
  9.090640e-01    5.939057e-01
  1.020193e+00    1.099380e+00
  1.131322e+00    1.467702e+00
  1.242451e+00    2.314948e+00
  1.353580e+00    2.530320e+00
  1.464709e+00    2.750968e+00
  1.575838e+00    3.114615e+00
  1.686967e+00    2.900893e+00
  1.798096e+00    2.906895e+00
  1.909225e+00    2.890487e+00
  2.020354e+00    2.737337e+00
  2.131483e+00    2.897949e+00
  2.242612e+00    2.764041e+00
  2.353741e+00    2.789113e+00
  2.464870e+00    2.872962e+00
  2.575999e+00    2.879666e+00
  2.687128e+00    2.868928e+00
  2.798257e+00    2.782253e+00
  2.909386e+00    2.964981e+00
  3.020515e+00    2.872225e+00
  3.131644e+00    2.916030e+00
  3.242773e+00    2.840149e+00
  3.353902e+00    3.016247e+00
  3.465031e+00    2.888600e+00
  3.576160e+00    3.038662e+00
  3.687289e+00    2.978950e+00
  3.798418e+00    2.921001e+00
  3.909547e+00    3.073966e+00
  4.020676e+00    3.066965e+00
  4.131806e+00    3.096764e+00
  4.242935e+00    3.133284e+00
  4.354064e+00    3.106692e+00
  4.465193e+00    3.027984e+00
  4.576322e+00    3.092714e+00
  4.687451e+00    3.085610e+00
  4.798580e+00    3.104970e+00
  4.909709e+00    3.140050e+00
  5.020838e+00    3.192792e+00
  5.131967e+00    3.111140e+00
  5.243096e+00    3.081168e+00
  5.354225e+00    3.123531e+00
  5.465354e+00    3.096402e+00
  5.576483e+00    3.142644e+00
  5.687612e+00    3.133823e+00
  5.798741e+00    3.104747e+00
  5.909870e+00    3.036657e+00
  6.020999e+00    3.066732e+00
  6.132128e+00    3.092972e+00
  6.243257e+00    3.016644e+00
  6.354386e+00    3.048774e+00
  6.465515e+00    3.000875e+00
  6.576644e+00    3.064848e+00
  6.687773e+00    3.087265e+00
  6.798902e+00    3.032715e+00
  6.910031e+00    3.108089e+00
  7.021160e+00    3.098452e+00
  7.132289e+00    3.081105e+00
  7.243418e+00    3.000856e+00
  7.354547e+00    3.061703e+00
  7.465676e+00    3.004595e+00
  7.576805e+00    3.003414e+00
  7.687934e+00    2.995372e+00
  7.799063e+00    2.938580e+00
  7.910192e+00    2.967070e+00
  8.021321e+00    2.934469e+00
  8.132450e+00    2.958185e+00
  8.243579e+00    2.916137e+00
  8.354708e+00    2.900049e+00
  8.465837e+00    2.910563e+00
  8.576966e+00    2.901517e+00
  8.688095e+00    2.850725e+00
  8.799224e+00    2.831178e+00
  8.910353e+00    2.829238e+00
  9.021482e+00    2.839854e+00
  9.132611e+00    2.852748e+00
  9.243740e+00    2.790926e+00
  9.354869e+00    2.814018e+00
  9.465998e+00    2.807030e+00
  9.577127e+00    2.818355e+00
  9.688256e+00    2.770764e+00
  9.799385e+00    2.762853e+00
  9.910514e+00    2.742545e+00
  1.002164e+01    2.736239e+00
  1.013277e+01    2.712754e+00
  1.024390e+01    2.663771e+00
  1.035503e+01    2.646024e+00
  1.046616e+01    2.605832e+00
  1.057729e+01    2.564866e+00
  1.068842e+01    2.555892e+00
  1.079955e+01    2.575257e+00
  1.091068e+01    2.541471e+00
  1.102180e+01    2.503336e+00
  1.113293e+01    2.493976e+00
  1.124406e+01    2.420665e+00
  1.135519e+01    2.406971e+00
  1.146632e+01    2.405603e+00
  1.157745e+01    2.386820e+00
  1.168858e+01    2.414120e+00
  1.179971e+01    2.390764e+00
  1.191084e+01    2.380004e+00
  1.202197e+01    2.411057e+00
  1.213309e+01    2.322711e+00
  1.224422e+01    2.319797e+00
  1.235535e+01    2.350426e+00
  1.246648e+01    2.386646e+00
  1.257761e+01    2.436300e+00
  1.268874e+01    2.490892e+00
  1.279987e+01    2.686911e+00
  1.291100e+01    3.298249e+00
  1.302213e+01    5.794018e+00
  1.313326e+01    1.495542e+01
  1.324438e+01    1.671418e+01
  1.335551e+01    5.592321e+00
  1.346664e+01    3.190065e+00
  1.357777e+01    2.602765e+00
  1.368890e+01    2.319157e+00
  1.380003e+01    2.209384e+00
  1.391116e+01    2.174476e+00
  1.402229e+01    2.126600e+00
  1.413342e+01    2.058397e+00
  1.424455e+01    2.026262e+00
  1.435568e+01    1.990320e+00
  1.446680e+01    1.948009e+00
  1.457793e+01    1.950050e+00
  1.468906e+01    1.975389e+00
  1.480019e+01    1.963438e+00
  1.491132e+01    1.931445e+00
  1.502245e+01    2.234565e+00
  1.513358e+01    3.178365e+00
  1.524471e+01    5.978272e+00
  1.535584e+01    5.145288e+00
  1.546697e+01    2.544981e+00
  1.557809e+01    1.965571e+00
  1.568922e+01    1.752255e+00
  1.580035e+01    1.741218e+00
  1.591148e+01    1.708350e+00
  1.602261e+01    1.643950e+00
  1.613374e+01    1.613623e+00
  1.624487e+01    1.579670e+00
  1.635600e+01    1.541109e+00
  1.646713e+01    1.494308e+00
  1.657826e+01    1.527906e+00
  1.668938e+01    1.520724e+00
  1.680051e+01    1.491751e+00
  1.691164e+01    1.452450e+00
  1.702277e+01    1.459738e+00
  1.713390e+01    1.416055e+00
  1.724503e+01    1.413310e+00
  1.735616e+01    1.412255e+00
  1.746729e+01    1.393769e+00
  1.757842e+01    1.382718e+00
  1.768955e+01    1.358645e+00
  1.780067e+01    1.329489e+00
  1.791180e+01    1.316551e+00
  1.802293e+01    1.321730e+00
  1.813406e+01    1.321895e+00
  1.824519e+01    1.318168e+00
  1.835632e+01    1.292856e+00
  1.846745e+01    1.244244e+00
  1.857858e+01    1.264075e+00
  1.868971e+01    1.269676e+00
  1.880084e+01    1.239296e+00
  1.891196e+01    1.195414e+00
  1.902309e+01    1.196428e+00
  1.913422e+01    1.199388e+00
  1.924535e+01    1.221882e+00
  1.935648e+01    1.184307e+00
  1.946761e+01    1.185525e+00
  1.957874e+01    1.176719e+00
  1.968987e+01    1.186737e+00
  1.980100e+01    1.180941e+00
  1.991213e+01    1.171376e+00
  2.002325e+01    1.141319e+00
  2.013438e+01    1.128819e+00
  2.024551e+01    1.133436e+00
  2.035664e+01    1.118373e+00
  2.046777e+01    1.124668e+00
  2.057890e+01    1.105666e+00
  2.069003e+01    1.099419e+00
  2.080116e+01    1.080530e+00
  2.091229e+01    1.100574e+00
  2.102342e+01    1.085449e+00
  2.113455e+01    1.124430e+00
  2.124567e+01    1.125629e+00
  2.135680e+01    1.160980e+00
  2.146793e+01    1.251407e+00
  2.157906e+01    1.442324e+00
  2.169019e+01    2.092878e+00
  2.180132e+01    4.719359e+00
  2.191245e+01    1.053700e+01
  2.202358e+01    6.384790e+00
  2.213471e+01    2.443260e+00
  2.224584e+01    1.494379e+00
  2.235696e+01    1.201535e+00
  2.246809e+01    1.089571e+00
  2.257922e+01    1.050347e+00
  2.269035e+01    1.008029e+00
  2.280148e+01    9.566126e-01
  2.291261e+01    9.609995e-01
  2.302374e+01    8.973285e-01
  2.313487e+01    9.009858e-01
  2.324600e+01    9.121200e-01
  2.335713e+01    8.867536e-01
  2.346825e+01    8.754346e-01
  2.357938e+01    8.531217e-01
  2.369051e+01    8.449238e-01
  2.380164e+01    8.232791e-01
  2.391277e+01    8.054684e-01
  2.402390e+01    8.181953e-01
  2.413503e+01    8.028917e-01
  2.424616e+01    8.040449e-01
  2.435729e+01    8.012348e-01
  2.446842e+01    8.056665e-01
  2.457954e+01    8.057006e-01
  2.469067e+01    8.040147e-01
  2.480180e+01    8.115436e-01
  2.491293e+01    8.032088e-01
  2.502406e+01    8.229086e-01
  2.513519e+01    8.294975e-01
  2.524632e+01    8.427107e-01
  2.535745e+01    9.101235e-01
  2.546858e+01    9.430192e-01
  2.557971e+01    1.048556e+00
  2.569083e+01    1.312701e+00
  2.580196e+01    2.199268e+00
  2.591309e+01    5.377211e+00
  2.602422e+01    9.130294e+00
  2.613535e+01    3.725760e+00
  2.624648e+01    1.747207e+00
  2.635761e+01    1.203648e+00
  2.646874e+01    1.034153e+00
  2.657987e+01    9.660411e-01
  2.669100e+01    9.452630e-01
  2.680212e+01    8.982762e-01
  2.691325e+01    9.639107e-01
  2.702438e+01    1.031197e+00
  2.713551e+01    1.413912e+00
  2.724664e+01    2.525791e+00
  2.735777e+01    1.824282e+00
  2.746890e+01    1.120179e+00
  2.758003e+01    9.346385e-01
  2.769116e+01    8.801684e-01
  2.780229e+01    8.586783e-01
  2.791342e+01    8.224372e-01
  2.802454e+01    8.192727e-01
  2.813567e+01    7.950964e-01
  2.824680e+01    7.946311e-01
  2.835793e+01    7.906522e-01
  2.846906e+01    7.690107e-01
  2.858019e+01    7.720265e-01
  2.869132e+01    7.793378e-01
  2.880245e+01    7.785672e-01
  2.891358e+01    7.745607e-01
  2.902471e+01    7.638612e-01
  2.913583e+01    7.528682e-01
  2.924696e+01    7.553809e-01
  2.935809e+01    7.544830e-01
  2.946922e+01    7.433516e-01
  2.958035e+01    7.257307e-01
  2.969148e+01    7.419142e-01
  2.980261e+01    7.341624e-01
  2.991374e+01    7.278394e-01
  3.002487e+01    7.605360e-01
  3.013600e+01    7.251090e-01
  3.024712e+01    7.227303e-01
  3.035825e+01    7.279032e-01
  3.046938e+01    7.334492e-01
  3.058051e+01    7.279830e-01
  3.069164e+01    7.365170e-01
  3.080277e+01    7.213435e-01
  3.091390e+01    7.252792e-01
  3.102503e+01    7.226404e-01
  3.113616e+01    7.348427e-01
  3.124729e+01    7.410149e-01
  3.135841e+01    7.519160e-01
  3.146954e+01    7.571830e-01
  3.158067e+01    8.145915e-01
  3.169180e+01    8.845907e-01
  3.180293e+01    1.160798e+00
  3.191406e+01    2.206607e+00
  3.202519e+01    2.207773e+00
  3.213632e+01    1.179003e+00
  3.224745e+01    8.609819e-01
  3.235858e+01    8.147352e-01
  3.246970e+01    7.548193e-01
  3.254908e+01    7.525089e-01

File: 2024-07-27_002_Ru-CGO-ex_Activtation_ramp_000002_data_000012.dat
# == pyFAI calibration ==
# Distance Sample to Detector: 0.4 m
# PONI: 9.750e-02, 1.135e-01 m
# Rotations: -0.000175 0.000000 -0.000000 rad
#
# == Fit2d calibration ==
# Distance Sample-beamCenter: 400.000 mm
# Center: x=1514.000, y=1300.000 pix
# Tilt: 0.010 deg  TiltPlanRot: 0.010 deg
#
# Detector Detector	 Spline= None	 PixelSize= 7.500e-05, 7.500e-05 m
#    Detector has a mask: False
#    Detector has a dark current: False
#    detector has a flat field: False
#
# Wavelength: 6.888e-11 m
# Mask applied: user provided
# Dark current applied: False
# Flat field applied: False
# Polarization factor: 0.99
# Normalization factor: 1.0
# --> /home/myspot/data/2024_07_Rosario/Ru-CGO-ex/2024-07-27_002_Ru-CGO-ex_Activtation_ramp_000002_data_000012.dat
#       q_nm^-1             I
  2.003187e-02    2.195834e-01
  1.311609e-01    2.310895e-03
  2.422899e-01    3.538205e-02
  3.534189e-01    6.390193e-03
  4.645479e-01    3.018977e-02
  5.756770e-01    7.062291e-02
  6.868060e-01    2.395844e-02
  7.979350e-01    1.329359e-01
  9.090640e-01    5.048952e-01
  1.020193e+00    1.161822e+00
  1.131322e+00    1.367669e+00
  1.242451e+00    2.264302e+00
  1.353580e+00    2.729210e+00
  1.464709e+00    2.774108e+00
  1.575838e+00    3.069863e+00
  1.686967e+00    2.899718e+00
  1.798096e+00    2.893122e+00
  1.909225e+00    2.824221e+00
  2.020354e+00    2.790605e+00
  2.131483e+00    2.843446e+00
  2.242612e+00    2.743952e+00
  2.353741e+00    2.821902e+00
  2.464870e+00    2.825687e+00
  2.575999e+00    2.832315e+00
  2.687128e+00    2.733773e+00
  2.798257e+00    2.854007e+00
  2.909386e+00    2.814322e+00
  3.020515e+00    2.953963e+00
  3.131644e+00    2.921082e+00
  3.242773e+00    3.102168e+00
  3.353902e+00    3.046372e+00
  3.465031e+00    2.908242e+00
  3.576160e+00    3.022374e+00
  3.687289e+00    2.974333e+00
  3.798418e+00    3.056363e+00
  3.909547e+00    3.010473e+00
  4.020676e+00    3.034045e+00
  4.131806e+00    3.050595e+00
  4.242935e+00    3.116227e+00
  4.354064e+00    3.112040e+00
  4.465193e+00    3.127196e+00
  4.576322e+00    3.030074e+00
  4.687451e+00    3.135164e+00
  4.798580e+00    3.159298e+00
  4.909709e+00    3.132020e+00
  5.020838e+00    3.103057e+00
  5.131967e+00    3.219886e+00
  5.243096e+00    3.121039e+00
  5.354225e+00    3.305158e+00
  5.465354e+00    3.106381e+00
  5.576483e+00    3.082605e+00
  5.687612e+00    3.108709e+00
  5.798741e+00    3.082812e+00
  5.909870e+00    3.089518e+00
  6.020999e+00    2.953067e+00
  6.132128e+00    3.055417e+00
  6.243257e+00    3.069404e+00
  6.354386e+00    3.078068e+00
  6.465515e+00    3.061828e+00
  6.576644e+00    3.068853e+00
  6.687773e+00    2.988198e+00
  6.798902e+00    3.035286e+00
  6.910031e+00    2.995244e+00
  7.021160e+00    2.929124e+00
  7.132289e+00    3.077983e+00
  7.243418e+00    3.004123e+00
  7.354547e+00    3.056982e+00
  7.465676e+00    2.985486e+00
  7.576805e+00    2.940749e+00
  7.687934e+00    2.954735e+00
  7.799063e+00    2.991729e+00
  7.910192e+00    2.979958e+00
  8.021321e+00    2.971437e+00
  8.132450e+00    3.011189e+00
  8.243579e+00    2.984748e+00
  8.354708e+00    2.939716e+00
  8.465837e+00    2.925342e+00
  8.576966e+00    2.879127e+00
  8.688095e+00    2.898801e+00
  8.799224e+00    2.867071e+00
  8.910353e+00    2.866855e+00
  9.021482e+00    2.812233e+00
  9.132611e+00    2.821629e+00
  9.243740e+00    2.826732e+00
  9.354869e+00    2.792537e+00
  9.465998e+00    2.881790e+00
  9.577127e+00    2.857272e+00
  9.688256e+00    2.786056e+00
  9.799385e+00    2.789731e+00
  9.910514e+00    2.649954e+00
  1.002164e+01    2.664538e+00
  1.013277e+01    2.691204e+00
  1.024390e+01    2.686962e+00
  1.035503e+01    2.625041e+00
  1.046616e+01    2.596272e+00
  1.057729e+01    2.617511e+00
  1.068842e+01    2.570598e+00
  1.079955e+01    2.582990e+00
  1.091068e+01    2.508983e+00
  1.102180e+01    2.571377e+00
  1.113293e+01    2.481003e+00
  1.124406e+01    2.497393e+00
  1.135519e+01    2.459840e+00
  1.146632e+01    2.496200e+00
  1.157745e+01    2.397594e+00
  1.168858e+01    2.386238e+00
  1.179971e+01    2.401714e+00
  1.191084e+01    2.378010e+00
  1.202197e+01    2.301038e+00
  1.213309e+01    2.324478e+00
  1.224422e+01    2.307953e+00
  1.235535e+01    2.365921e+00
  1.246648e+01    2.370836e+00
  1.257761e+01    2.375895e+00
  1.268874e+01    2.456125e+00
  1.279987e+01    2.694921e+00
  1.291100e+01    3.310432e+00
  1.302213e+01    5.847419e+00
  1.313326e+01    1.488371e+01
  1.324438e+01    1.657203e+01
  1.335551e+01    5.542212e+00
  1.346664e+01    3.212833e+00
  1.357777e+01    2.600658e+00
  1.368890e+01    2.325591e+00
  1.380003e+01    2.238429e+00
  1.391116e+01    2.128154e+00
  1.402229e+01    2.087792e+00
  1.413342e+01    2.020625e+00
  1.424455e+01    2.011060e+00
  1.435568e+01    2.017798e+00
  1.446680e+01    1.915572e+00
  1.457793e+01    1.957378e+00
  1.468906e+01    1.922392e+00
  1.480019e+01    1.941357e+00
  1.491132e+01    2.004321e+00
  1.502245e+01    2.196780e+00
  1.513358e+01    3.178132e+00
  1.524471e+01    5.943802e+00
  1.535584e+01    5.137544e+00
  1.546697e+01    2.528360e+00
  1.557809e+01    1.985133e+00
  1.568922e+01    1.807932e+00
  1.580035e+01    1.736639e+00
  1.591148e+01    1.682568e+00
  1.602261e+01    1.610627e+00
  1.613374e+01    1.601804e+00
  1.624487e+01    1.577254e+00
  1.635600e+01    1.571769e+00
  1.646713e+01    1.500355e+00
  1.657826e+01    1.511908e+00
  1.668938e+01    1.498607e+00
  1.680051e+01    1.506742e+00
  1.691164e+01    1.489122e+00
  1.702277e+01    1.473588e+00
  1.713390e+01    1.425856e+00
  1.724503e+01    1.406106e+00
  1.735616e+01    1.393897e+00
  1.746729e+01    1.379562e+00
  1.757842e+01    1.363316e+00
  1.768955e+01    1.378181e+00
  1.780067e+01    1.349103e+00
  1.791180e+01    1.332366e+00
  1.802293e+01    1.326670e+00
  1.813406e+01    1.367863e+00
  1.824519e+01    1.302230e+00
  1.835632e+01    1.288181e+00
  1.846745e+01    1.271839e+00
  1.857858e+01    1.263333e+00
  1.868971e+01    1.236061e+00
  1.880084e+01    1.238102e+00
  1.891196e+01    1.229753e+00
  1.902309e+01    1.195053e+00
  1.913422e+01    1.207672e+00
  1.924535e+01    1.211952e+00
  1.935648e+01    1.186766e+00
  1.946761e+01    1.199890e+00
  1.957874e+01    1.185281e+00
  1.968987e+01    1.160940e+00
  1.980100e+01    1.156019e+00
  1.991213e+01    1.098303e+00
  2.002325e+01    1.159018e+00
  2.013438e+01    1.116067e+00
  2.024551e+01    1.111273e+00
  2.035664e+01    1.118939e+00
  2.046777e+01    1.114821e+00
  2.057890e+01    1.132386e+00
  2.069003e+01    1.085309e+00
  2.080116e+01    1.089619e+00
  2.091229e+01    1.102427e+00
  2.102342e+01    1.090756e+00
  2.113455e+01    1.114183e+00
  2.124567e+01    1.127530e+00
  2.135680e+01    1.170105e+00
  2.146793e+01    1.236353e+00
  2.157906e+01    1.431787e+00
  2.169019e+01    2.093601e+00
  2.180132e+01    4.772275e+00
  2.191245e+01    1.049018e+01
  2.202358e+01    6.320667e+00
  2.213471e+01    2.429425e+00
  2.224584e+01    1.524008e+00
  2.235696e+01    1.188447e+00
  2.246809e+01    1.094642e+00
  2.257922e+01    1.048787e+00
  2.269035e+01    9.960049e-01
  2.280148e+01    9.654998e-01
  2.291261e+01    9.454369e-01
  2.302374e+01    9.202839e-01
  2.313487e+01    8.871444e-01
  2.324600e+01    8.657928e-01
  2.335713e+01    8.688691e-01
  2.346825e+01    8.615983e-01
  2.357938e+01    8.469537e-01
  2.369051e+01    8.580986e-01
  2.380164e+01    8.355285e-01
  2.391277e+01    7.929815e-01
  2.402390e+01    8.065792e-01
  2.413503e+01    7.789354e-01
  2.424616e+01    7.890298e-01
  2.435729e+01    8.166107e-01
  2.446842e+01    7.998980e-01
  2.457954e+01    8.222327e-01
  2.469067e+01    8.157242e-01
  2.480180e+01    8.110886e-01
  2.491293e+01    7.980151e-01
  2.502406e+01    8.274036e-01
  2.513519e+01    8.139128e-01
  2.524632e+01    8.472372e-01
  2.535745e+01    9.027159e-01
  2.546858e+01    9.541742e-01
  2.557971e+01    1.059235e+00
  2.569083e+01    1.312732e+00
  2.580196e+01    2.165468e+00
  2.591309e+01    5.347512e+00
  2.602422e+01    9.039141e+00
  2.613535e+01    3.732682e+00
  2.624648e+01    1.724553e+00
  2.635761e+01    1.207107e+00
  2.646874e+01    1.034781e+00
  2.657987e+01    9.729298e-01
  2.669100e+01    9.573393e-01
  2.680212e+01    9.149969e-01
  2.691325e+01    9.629010e-01
  2.702438e+01    1.037438e+00
  2.713551e+01    1.441108e+00
  2.724664e+01    2.532019e+00
  2.735777e+01    1.826407e+00
  2.746890e+01    1.121272e+00
  2.758003e+01    9.310936e-01
  2.769116e+01    8.745590e-01
  2.780229e+01    8.422661e-01
  2.791342e+01    8.273323e-01
  2.802454e+01    8.106150e-01
  2.813567e+01    8.048924e-01
  2.824680e+01    8.012289e-01
  2.835793e+01    7.891613e-01
  2.846906e+01    7.835892e-01
  2.858019e+01    7.671514e-01
  2.869132e+01    7.759517e-01
  2.880245e+01    7.511491e-01
  2.891358e+01    7.530321e-01
  2.902471e+01    7.548270e-01
  2.913583e+01    7.531524e-01
  2.924696e+01    7.444944e-01
  2.935809e+01    7.429974e-01
  2.946922e+01    7.436866e-01
  2.958035e+01    7.358618e-01
  2.969148e+01    7.264892e-01
  2.980261e+01    7.304198e-01
  2.991374e+01    7.616217e-01
  3.002487e+01    7.615864e-01
  3.013600e+01    7.535850e-01
  3.024712e+01    7.196087e-01
  3.035825e+01    7.320878e-01
  3.046938e+01    7.278998e-01
  3.058051e+01    6.980501e-01
  3.069164e+01    7.175275e-01
  3.080277e+01    7.372885e-01
  3.091390e+01    7.294579e-01
  3.102503e+01    7.496294e-01
  3.113616e+01    7.454911e-01
  3.124729e+01    7.224224e-01
  3.135841e+01    7.456845e-01
  3.146954e+01    7.806588e-01
  3.158067e+01    8.165681e-01
  3.169180e+01    8.991464e-01
  3.180293e+01    1.170495e+00
  3.191406e+01    2.182040e+00
  3.202519e+01    2.211190e+00
  3.213632e+01    1.142426e+00
  3.224745e+01    8.673229e-01
  3.235858e+01    7.691544e-01
  3.246970e+01    7.572193e-01
  3.254908e+01    7.523022e-01