Folder: myspot_2024_07/XRD/Reaction conditions (part 68)

File: 2024-07-27_003_Ru-CGO-ex_Reaction_dwell_000023_data_000166.dat
# == pyFAI calibration ==
# Distance Sample to Detector: 0.4 m
# PONI: 9.750e-02, 1.135e-01 m
# Rotations: -0.000175 0.000000 -0.000000 rad
#
# == Fit2d calibration ==
# Distance Sample-beamCenter: 400.000 mm
# Center: x=1514.000, y=1300.000 pix
# Tilt: 0.010 deg  TiltPlanRot: 0.010 deg
#
# Detector Detector	 Spline= None	 PixelSize= 7.500e-05, 7.500e-05 m
#    Detector has a mask: False
#    Detector has a dark current: False
#    detector has a flat field: False
#
# Wavelength: 6.888e-11 m
# Mask applied: user provided
# Dark current applied: False
# Flat field applied: False
# Polarization factor: 0.99
# Normalization factor: 1.0
# --> /home/myspot/data/2024_07_Rosario/Ru-CGO-ex/2024-07-27_003_Ru-CGO-ex_Reaction_dwell_000023_data_000166.dat
#       q_nm^-1             I
  2.003187e-02    1.424646e-01
  1.311609e-01    4.185179e-02
  2.422899e-01    1.063560e-01
  3.534189e-01    2.025094e-02
  4.645479e-01    3.946580e-02
  5.756770e-01    5.776147e-02
  6.868060e-01    4.767232e-02
  7.979350e-01    1.543635e-01
  9.090640e-01    6.774626e-01
  1.020193e+00    1.234543e+00
  1.131322e+00    1.506388e+00
  1.242451e+00    2.306568e+00
  1.353580e+00    2.581342e+00
  1.464709e+00    2.962965e+00
  1.575838e+00    3.238275e+00
  1.686967e+00    2.978975e+00
  1.798096e+00    3.000632e+00
  1.909225e+00    3.104617e+00
  2.020354e+00    3.111565e+00
  2.131483e+00    2.954282e+00
  2.242612e+00    3.088299e+00
  2.353741e+00    3.068533e+00
  2.464870e+00    3.235799e+00
  2.575999e+00    3.256811e+00
  2.687128e+00    3.187531e+00
  2.798257e+00    3.321030e+00
  2.909386e+00    3.143677e+00
  3.020515e+00    3.390206e+00
  3.131644e+00    3.294529e+00
  3.242773e+00    3.248665e+00
  3.353902e+00    3.271775e+00
  3.465031e+00    3.375707e+00
  3.576160e+00    3.414065e+00
  3.687289e+00    3.457095e+00
  3.798418e+00    3.486195e+00
  3.909547e+00    3.466838e+00
  4.020676e+00    3.505250e+00
  4.131806e+00    3.585662e+00
  4.242935e+00    3.547385e+00
  4.354064e+00    3.538149e+00
  4.465193e+00    3.542949e+00
  4.576322e+00    3.615798e+00
  4.687451e+00    3.546556e+00
  4.798580e+00    3.610544e+00
  4.909709e+00    3.583648e+00
  5.020838e+00    3.657695e+00
  5.131967e+00    3.719498e+00
  5.243096e+00    3.657089e+00
  5.354225e+00    3.714795e+00
  5.465354e+00    3.552861e+00
  5.576483e+00    3.558511e+00
  5.687612e+00    3.622364e+00
  5.798741e+00    3.636984e+00
  5.909870e+00    3.582117e+00
  6.020999e+00    3.450811e+00
  6.132128e+00    3.553750e+00
  6.243257e+00    3.530177e+00
  6.354386e+00    3.571237e+00
  6.465515e+00    3.590948e+00
  6.576644e+00    3.575085e+00
  6.687773e+00    3.494470e+00
  6.798902e+00    3.554646e+00
  6.910031e+00    3.469137e+00
  7.021160e+00    3.530419e+00
  7.132289e+00    3.525507e+00
  7.243418e+00    3.435570e+00
  7.354547e+00    3.463213e+00
  7.465676e+00    3.382433e+00
  7.576805e+00    3.435852e+00
  7.687934e+00    3.465595e+00
  7.799063e+00    3.406399e+00
  7.910192e+00    3.418664e+00
  8.021321e+00    3.322067e+00
  8.132450e+00    3.480047e+00
  8.243579e+00    3.521061e+00
  8.354708e+00    3.421019e+00
  8.465837e+00    3.362563e+00
  8.576966e+00    3.332293e+00
  8.688095e+00    3.324234e+00
  8.799224e+00    3.323464e+00
  8.910353e+00    3.334309e+00
  9.021482e+00    3.270639e+00
  9.132611e+00    3.230892e+00
  9.243740e+00    3.249176e+00
  9.354869e+00    3.150822e+00
  9.465998e+00    3.141670e+00
  9.577127e+00    3.166617e+00
  9.688256e+00    3.160296e+00
  9.799385e+00    3.130579e+00
  9.910514e+00    3.103819e+00
  1.002164e+01    3.117695e+00
  1.013277e+01    3.066211e+00
  1.024390e+01    3.061957e+00
  1.035503e+01    2.982537e+00
  1.046616e+01    3.013923e+00
  1.057729e+01    2.966155e+00
  1.068842e+01    2.943436e+00
  1.079955e+01    2.922472e+00
  1.091068e+01    2.882963e+00
  1.102180e+01    2.872458e+00
  1.113293e+01    2.807789e+00
  1.124406e+01    2.790350e+00
  1.135519e+01    2.792526e+00
  1.146632e+01    2.765211e+00
  1.157745e+01    2.759255e+00
  1.168858e+01    2.737022e+00
  1.179971e+01    2.698346e+00
  1.191084e+01    2.651922e+00
  1.202197e+01    2.724978e+00
  1.213309e+01    2.666793e+00
  1.224422e+01    2.640289e+00
  1.235535e+01    2.600584e+00
  1.246648e+01    2.719969e+00
  1.257761e+01    2.705045e+00
  1.268874e+01    2.774209e+00
  1.279987e+01    2.947553e+00
  1.291100e+01    3.664837e+00
  1.302213e+01    6.645417e+00
  1.313326e+01    1.459665e+01
  1.324438e+01    1.049204e+01
  1.335551e+01    4.413740e+00
  1.346664e+01    3.084876e+00
  1.357777e+01    2.725435e+00
  1.368890e+01    2.546618e+00
  1.380003e+01    2.426569e+00
  1.391116e+01    2.380559e+00
  1.402229e+01    2.358335e+00
  1.413342e+01    2.262493e+00
  1.424455e+01    2.249724e+00
  1.435568e+01    2.273259e+00
  1.446680e+01    2.169058e+00
  1.457793e+01    2.182651e+00
  1.468906e+01    2.178707e+00
  1.480019e+01    2.179130e+00
  1.491132e+01    2.264429e+00
  1.502245e+01    2.488867e+00
  1.513358e+01    3.728695e+00
  1.524471e+01    5.684347e+00
  1.535584e+01    3.692461e+00
  1.546697e+01    2.385141e+00
  1.557809e+01    2.119294e+00
  1.568922e+01    1.976943e+00
  1.580035e+01    1.947782e+00
  1.591148e+01    1.890023e+00
  1.602261e+01    1.864747e+00
  1.613374e+01    1.819319e+00
  1.624487e+01    1.793455e+00
  1.635600e+01    1.774788e+00
  1.646713e+01    1.732813e+00
  1.657826e+01    1.689384e+00
  1.668938e+01    1.741517e+00
  1.680051e+01    1.688835e+00
  1.691164e+01    1.674786e+00
  1.702277e+01    1.665382e+00
  1.713390e+01    1.654447e+00
  1.724503e+01    1.596758e+00
  1.735616e+01    1.624105e+00
  1.746729e+01    1.553923e+00
  1.757842e+01    1.584525e+00
  1.768955e+01    1.544143e+00
  1.780067e+01    1.507111e+00
  1.791180e+01    1.542012e+00
  1.802293e+01    1.470245e+00
  1.813406e+01    1.496652e+00
  1.824519e+01    1.453447e+00
  1.835632e+01    1.444927e+00
  1.846745e+01    1.418887e+00
  1.857858e+01    1.409460e+00
  1.868971e+01    1.411768e+00
  1.880084e+01    1.385768e+00
  1.891196e+01    1.395543e+00
  1.902309e+01    1.357864e+00
  1.913422e+01    1.352543e+00
  1.924535e+01    1.357233e+00
  1.935648e+01    1.334811e+00
  1.946761e+01    1.315866e+00
  1.957874e+01    1.308687e+00
  1.968987e+01    1.306607e+00
  1.980100e+01    1.272670e+00
  1.991213e+01    1.283208e+00
  2.002325e+01    1.313454e+00
  2.013438e+01    1.233952e+00
  2.024551e+01    1.260512e+00
  2.035664e+01    1.245659e+00
  2.046777e+01    1.219618e+00
  2.057890e+01    1.224516e+00
  2.069003e+01    1.222383e+00
  2.080116e+01    1.208874e+00
  2.091229e+01    1.214053e+00
  2.102342e+01    1.216651e+00
  2.113455e+01    1.206523e+00
  2.124567e+01    1.221780e+00
  2.135680e+01    1.255818e+00
  2.146793e+01    1.372114e+00
  2.157906e+01    1.612586e+00
  2.169019e+01    2.460387e+00
  2.180132e+01    5.756894e+00
  2.191245e+01    8.660612e+00
  2.202358e+01    3.628644e+00
  2.213471e+01    1.844733e+00
  2.224584e+01    1.410700e+00
  2.235696e+01    1.223344e+00
  2.246809e+01    1.146827e+00
  2.257922e+01    1.109265e+00
  2.269035e+01    1.074068e+00
  2.280148e+01    1.042433e+00
  2.291261e+01    1.051006e+00
  2.302374e+01    9.873736e-01
  2.313487e+01    9.599444e-01
  2.324600e+01    9.738851e-01
  2.335713e+01    9.617912e-01
  2.346825e+01    9.714145e-01
  2.357938e+01    9.558696e-01
  2.369051e+01    9.280284e-01
  2.380164e+01    9.105363e-01
  2.391277e+01    9.064726e-01
  2.402390e+01    8.985393e-01
  2.413503e+01    8.751189e-01
  2.424616e+01    8.766772e-01
  2.435729e+01    9.002159e-01
  2.446842e+01    8.794466e-01
  2.457954e+01    9.036262e-01
  2.469067e+01    8.734844e-01
  2.480180e+01    8.671538e-01
  2.491293e+01    8.747048e-01
  2.502406e+01    8.867615e-01
  2.513519e+01    9.244545e-01
  2.524632e+01    9.442576e-01
  2.535745e+01    9.711115e-01
  2.546858e+01    1.021400e+00
  2.557971e+01    1.140716e+00
  2.569083e+01    1.478290e+00
  2.580196e+01    2.721195e+00
  2.591309e+01    6.190967e+00
  2.602422e+01    5.250879e+00
  2.613535e+01    2.104422e+00
  2.624648e+01    1.320936e+00
  2.635761e+01    1.083573e+00
  2.646874e+01    1.024665e+00
  2.657987e+01    9.761632e-01
  2.669100e+01    9.734535e-01
  2.680212e+01    9.851032e-01
  2.691325e+01    1.014551e+00
  2.702438e+01    1.138146e+00
  2.713551e+01    1.691295e+00
  2.724664e+01    2.064045e+00
  2.735777e+01    1.264573e+00
  2.746890e+01    1.007259e+00
  2.758003e+01    9.330880e-01
  2.769116e+01    9.134433e-01
  2.780229e+01    8.680761e-01
  2.791342e+01    8.848663e-01
  2.802454e+01    8.471143e-01
  2.813567e+01    8.440995e-01
  2.824680e+01    8.440982e-01
  2.835793e+01    8.115773e-01
  2.846906e+01    8.404865e-01
  2.858019e+01    8.135926e-01
  2.869132e+01    8.267190e-01
  2.880245e+01    8.191237e-01
  2.891358e+01    8.199036e-01
  2.902471e+01    8.291643e-01
  2.913583e+01    8.036399e-01
  2.924696e+01    7.844219e-01
  2.935809e+01    7.999801e-01
  2.946922e+01    7.989244e-01
  2.958035e+01    7.961344e-01
  2.969148e+01    7.933124e-01
  2.980261e+01    7.741531e-01
  2.991374e+01    7.843796e-01
  3.002487e+01    8.108055e-01
  3.013600e+01    8.059440e-01
  3.024712e+01    7.763690e-01
  3.035825e+01    7.837366e-01
  3.046938e+01    7.939812e-01
  3.058051e+01    7.544038e-01
  3.069164e+01    7.788001e-01
  3.080277e+01    7.634431e-01
  3.091390e+01    7.638566e-01
  3.102503e+01    7.720116e-01
  3.113616e+01    7.833194e-01
  3.124729e+01    7.849386e-01
  3.135841e+01    7.937650e-01
  3.146954e+01    8.288354e-01
  3.158067e+01    8.856949e-01
  3.169180e+01    9.765496e-01
  3.180293e+01    1.415987e+00
  3.191406e+01    2.047351e+00
  3.202519e+01    1.324329e+00
  3.213632e+01    9.233800e-01
  3.224745e+01    8.282152e-01
  3.235858e+01    7.932729e-01
  3.246970e+01    7.997246e-01
  3.254908e+01    7.609161e-01

File: 2024-07-27_003_Ru-CGO-ex_Reaction_dwell_000023_data_000167.dat
# == pyFAI calibration ==
# Distance Sample to Detector: 0.4 m
# PONI: 9.750e-02, 1.135e-01 m
# Rotations: -0.000175 0.000000 -0.000000 rad
#
# == Fit2d calibration ==
# Distance Sample-beamCenter: 400.000 mm
# Center: x=1514.000, y=1300.000 pix
# Tilt: 0.010 deg  TiltPlanRot: 0.010 deg
#
# Detector Detector	 Spline= None	 PixelSize= 7.500e-05, 7.500e-05 m
#    Detector has a mask: False
#    Detector has a dark current: False
#    detector has a flat field: False
#
# Wavelength: 6.888e-11 m
# Mask applied: user provided
# Dark current applied: False
# Flat field applied: False
# Polarization factor: 0.99
# Normalization factor: 1.0
# --> /home/myspot/data/2024_07_Rosario/Ru-CGO-ex/2024-07-27_003_Ru-CGO-ex_Reaction_dwell_000023_data_000167.dat
#       q_nm^-1             I
  2.003187e-02    7.712225e-02
  1.311609e-01    6.413028e-02
  2.422899e-01    4.815619e-02
  3.534189e-01    5.782885e-02
  4.645479e-01    4.626974e-02
  5.756770e-01    2.502400e-02
  6.868060e-01    4.139456e-02
  7.979350e-01    1.933892e-01
  9.090640e-01    6.335878e-01
  1.020193e+00    1.284033e+00
  1.131322e+00    1.694808e+00
  1.242451e+00    2.425751e+00
  1.353580e+00    2.972760e+00
  1.464709e+00    3.017009e+00
  1.575838e+00    3.058038e+00
  1.686967e+00    3.170567e+00
  1.798096e+00    3.101417e+00
  1.909225e+00    3.044141e+00
  2.020354e+00    3.033592e+00
  2.131483e+00    3.060277e+00
  2.242612e+00    3.014375e+00
  2.353741e+00    3.249370e+00
  2.464870e+00    3.176807e+00
  2.575999e+00    3.217080e+00
  2.687128e+00    3.230496e+00
  2.798257e+00    3.309575e+00
  2.909386e+00    3.234493e+00
  3.020515e+00    3.411983e+00
  3.131644e+00    3.391773e+00
  3.242773e+00    3.353239e+00
  3.353902e+00    3.344090e+00
  3.465031e+00    3.385375e+00
  3.576160e+00    3.307952e+00
  3.687289e+00    3.471132e+00
  3.798418e+00    3.404735e+00
  3.909547e+00    3.465906e+00
  4.020676e+00    3.609411e+00
  4.131806e+00    3.633012e+00
  4.242935e+00    3.476975e+00
  4.354064e+00    3.547091e+00
  4.465193e+00    3.521386e+00
  4.576322e+00    3.566590e+00
  4.687451e+00    3.589165e+00
  4.798580e+00    3.602139e+00
  4.909709e+00    3.581559e+00
  5.020838e+00    3.696476e+00
  5.131967e+00    3.560477e+00
  5.243096e+00    3.621482e+00
  5.354225e+00    3.645223e+00
  5.465354e+00    3.566135e+00
  5.576483e+00    3.525830e+00
  5.687612e+00    3.474206e+00
  5.798741e+00    3.647840e+00
  5.909870e+00    3.583056e+00
  6.020999e+00    3.594355e+00
  6.132128e+00    3.580785e+00
  6.243257e+00    3.527202e+00
  6.354386e+00    3.513586e+00
  6.465515e+00    3.468846e+00
  6.576644e+00    3.505769e+00
  6.687773e+00    3.488298e+00
  6.798902e+00    3.519713e+00
  6.910031e+00    3.488417e+00
  7.021160e+00    3.562427e+00
  7.132289e+00    3.455042e+00
  7.243418e+00    3.442779e+00
  7.354547e+00    3.499657e+00
  7.465676e+00    3.443693e+00
  7.576805e+00    3.429727e+00
  7.687934e+00    3.440900e+00
  7.799063e+00    3.404169e+00
  7.910192e+00    3.380935e+00
  8.021321e+00    3.358486e+00
  8.132450e+00    3.410712e+00
  8.243579e+00    3.438021e+00
  8.354708e+00    3.391432e+00
  8.465837e+00    3.242721e+00
  8.576966e+00    3.409297e+00
  8.688095e+00    3.319913e+00
  8.799224e+00    3.281231e+00
  8.910353e+00    3.320845e+00
  9.021482e+00    3.228966e+00
  9.132611e+00    3.246767e+00
  9.243740e+00    3.157284e+00
  9.354869e+00    3.203484e+00
  9.465998e+00    3.090515e+00
  9.577127e+00    3.188722e+00
  9.688256e+00    3.128424e+00
  9.799385e+00    3.118175e+00
  9.910514e+00    3.102440e+00
  1.002164e+01    3.108278e+00
  1.013277e+01    3.078208e+00
  1.024390e+01    3.066011e+00
  1.035503e+01    2.989345e+00
  1.046616e+01    3.029808e+00
  1.057729e+01    2.930918e+00
  1.068842e+01    2.970125e+00
  1.079955e+01    2.907368e+00
  1.091068e+01    2.908016e+00
  1.102180e+01    2.892737e+00
  1.113293e+01    2.890234e+00
  1.124406e+01    2.834394e+00
  1.135519e+01    2.798115e+00
  1.146632e+01    2.826331e+00
  1.157745e+01    2.741897e+00
  1.168858e+01    2.740823e+00
  1.179971e+01    2.713403e+00
  1.191084e+01    2.687935e+00
  1.202197e+01    2.658131e+00
  1.213309e+01    2.691559e+00
  1.224422e+01    2.618468e+00
  1.235535e+01    2.656076e+00
  1.246648e+01    2.711931e+00
  1.257761e+01    2.711820e+00
  1.268874e+01    2.774085e+00
  1.279987e+01    3.016040e+00
  1.291100e+01    3.599792e+00
  1.302213e+01    6.606356e+00
  1.313326e+01    1.456578e+01
  1.324438e+01    1.064579e+01
  1.335551e+01    4.429873e+00
  1.346664e+01    3.093857e+00
  1.357777e+01    2.707387e+00
  1.368890e+01    2.540479e+00
  1.380003e+01    2.434921e+00
  1.391116e+01    2.368806e+00
  1.402229e+01    2.339360e+00
  1.413342e+01    2.306272e+00
  1.424455e+01    2.283879e+00
  1.435568e+01    2.191063e+00
  1.446680e+01    2.218189e+00
  1.457793e+01    2.224502e+00
  1.468906e+01    2.193750e+00
  1.480019e+01    2.180609e+00
  1.491132e+01    2.284423e+00
  1.502245e+01    2.471985e+00
  1.513358e+01    3.719487e+00
  1.524471e+01    5.622124e+00
  1.535584e+01    3.752119e+00
  1.546697e+01    2.428846e+00
  1.557809e+01    2.136345e+00
  1.568922e+01    1.974227e+00
  1.580035e+01    1.916435e+00
  1.591148e+01    1.896254e+00
  1.602261e+01    1.842285e+00
  1.613374e+01    1.826979e+00
  1.624487e+01    1.751149e+00
  1.635600e+01    1.757303e+00
  1.646713e+01    1.741785e+00
  1.657826e+01    1.725066e+00
  1.668938e+01    1.727813e+00
  1.680051e+01    1.710800e+00
  1.691164e+01    1.690438e+00
  1.702277e+01    1.651235e+00
  1.713390e+01    1.638346e+00
  1.724503e+01    1.609866e+00
  1.735616e+01    1.571019e+00
  1.746729e+01    1.544745e+00
  1.757842e+01    1.536778e+00
  1.768955e+01    1.538919e+00
  1.780067e+01    1.537789e+00
  1.791180e+01    1.526868e+00
  1.802293e+01    1.516556e+00
  1.813406e+01    1.457172e+00
  1.824519e+01    1.447143e+00
  1.835632e+01    1.438457e+00
  1.846745e+01    1.474651e+00
  1.857858e+01    1.430065e+00
  1.868971e+01    1.399220e+00
  1.880084e+01    1.377775e+00
  1.891196e+01    1.411341e+00
  1.902309e+01    1.358205e+00
  1.913422e+01    1.357751e+00
  1.924535e+01    1.378440e+00
  1.935648e+01    1.336564e+00
  1.946761e+01    1.335118e+00
  1.957874e+01    1.306621e+00
  1.968987e+01    1.306471e+00
  1.980100e+01    1.297051e+00
  1.991213e+01    1.285551e+00
  2.002325e+01    1.264070e+00
  2.013438e+01    1.273644e+00
  2.024551e+01    1.216119e+00
  2.035664e+01    1.249699e+00
  2.046777e+01    1.232210e+00
  2.057890e+01    1.206186e+00
  2.069003e+01    1.239712e+00
  2.080116e+01    1.228684e+00
  2.091229e+01    1.216101e+00
  2.102342e+01    1.204010e+00
  2.113455e+01    1.239275e+00
  2.124567e+01    1.232620e+00
  2.135680e+01    1.298035e+00
  2.146793e+01    1.358360e+00
  2.157906e+01    1.594895e+00
  2.169019e+01    2.439539e+00
  2.180132e+01    5.643758e+00
  2.191245e+01    8.635060e+00
  2.202358e+01    3.560888e+00
  2.213471e+01    1.864796e+00
  2.224584e+01    1.414874e+00
  2.235696e+01    1.215544e+00
  2.246809e+01    1.148034e+00
  2.257922e+01    1.097366e+00
  2.269035e+01    1.047202e+00
  2.280148e+01    1.049267e+00
  2.291261e+01    1.017991e+00
  2.302374e+01    1.021180e+00
  2.313487e+01    9.930474e-01
  2.324600e+01    9.872532e-01
  2.335713e+01    9.885752e-01
  2.346825e+01    9.580316e-01
  2.357938e+01    9.468645e-01
  2.369051e+01    9.397739e-01
  2.380164e+01    9.171633e-01
  2.391277e+01    9.029104e-01
  2.402390e+01    8.796763e-01
  2.413503e+01    8.959430e-01
  2.424616e+01    8.676665e-01
  2.435729e+01    8.741720e-01
  2.446842e+01    9.209458e-01
  2.457954e+01    8.858238e-01
  2.469067e+01    8.683420e-01
  2.480180e+01    8.916366e-01
  2.491293e+01    8.717214e-01
  2.502406e+01    8.952578e-01
  2.513519e+01    8.854772e-01
  2.524632e+01    9.288976e-01
  2.535745e+01    9.747579e-01
  2.546858e+01    1.017345e+00
  2.557971e+01    1.143393e+00
  2.569083e+01    1.488199e+00
  2.580196e+01    2.750794e+00
  2.591309e+01    6.251659e+00
  2.602422e+01    5.280535e+00
  2.613535e+01    2.130066e+00
  2.624648e+01    1.334594e+00
  2.635761e+01    1.078258e+00
  2.646874e+01    9.860739e-01
  2.657987e+01    9.615145e-01
  2.669100e+01    9.535162e-01
  2.680212e+01    9.592974e-01
  2.691325e+01    9.775210e-01
  2.702438e+01    1.130209e+00
  2.713551e+01    1.675099e+00
  2.724664e+01    2.017408e+00
  2.735777e+01    1.267161e+00
  2.746890e+01    1.017788e+00
  2.758003e+01    9.364150e-01
  2.769116e+01    8.812413e-01
  2.780229e+01    8.910195e-01
  2.791342e+01    8.648694e-01
  2.802454e+01    8.632404e-01
  2.813567e+01    8.619109e-01
  2.824680e+01    8.591406e-01
  2.835793e+01    8.626120e-01
  2.846906e+01    8.472149e-01
  2.858019e+01    8.342847e-01
  2.869132e+01    8.195272e-01
  2.880245e+01    8.104581e-01
  2.891358e+01    8.276896e-01
  2.902471e+01    7.925961e-01
  2.913583e+01    8.097759e-01
  2.924696e+01    8.089294e-01
  2.935809e+01    8.138200e-01
  2.946922e+01    7.892905e-01
  2.958035e+01    7.776890e-01
  2.969148e+01    7.830860e-01
  2.980261e+01    8.153331e-01
  2.991374e+01    7.870735e-01
  3.002487e+01    8.024971e-01
  3.013600e+01    8.009246e-01
  3.024712e+01    7.806318e-01
  3.035825e+01    7.590592e-01
  3.046938e+01    7.840956e-01
  3.058051e+01    7.753929e-01
  3.069164e+01    7.773356e-01
  3.080277e+01    7.743296e-01
  3.091390e+01    7.753299e-01
  3.102503e+01    8.013462e-01
  3.113616e+01    7.636259e-01
  3.124729e+01    7.927417e-01
  3.135841e+01    7.815651e-01
  3.146954e+01    8.163540e-01
  3.158067e+01    8.505948e-01
  3.169180e+01    9.706797e-01
  3.180293e+01    1.450694e+00
  3.191406e+01    2.077108e+00
  3.202519e+01    1.302908e+00
  3.213632e+01    9.089879e-01
  3.224745e+01    8.251830e-01
  3.235858e+01    7.981974e-01
  3.246970e+01    7.633918e-01
  3.254908e+01    7.746300e-01