Folder: myspot_2024_07/XRD/Reaction conditions (part 41)

File: 2024-07-27_003_Ru-CGO-ex_Reaction_dwell_000023_data_000106.dat
# == pyFAI calibration ==
# Distance Sample to Detector: 0.4 m
# PONI: 9.750e-02, 1.135e-01 m
# Rotations: -0.000175 0.000000 -0.000000 rad
#
# == Fit2d calibration ==
# Distance Sample-beamCenter: 400.000 mm
# Center: x=1514.000, y=1300.000 pix
# Tilt: 0.010 deg  TiltPlanRot: 0.010 deg
#
# Detector Detector	 Spline= None	 PixelSize= 7.500e-05, 7.500e-05 m
#    Detector has a mask: False
#    Detector has a dark current: False
#    detector has a flat field: False
#
# Wavelength: 6.888e-11 m
# Mask applied: user provided
# Dark current applied: False
# Flat field applied: False
# Polarization factor: 0.99
# Normalization factor: 1.0
# --> /home/myspot/data/2024_07_Rosario/Ru-CGO-ex/2024-07-27_003_Ru-CGO-ex_Reaction_dwell_000023_data_000106.dat
#       q_nm^-1             I
  2.003187e-02    3.620480e-01
  1.311609e-01    5.074476e-02
  2.422899e-01    6.146574e-02
  3.534189e-01    4.311500e-02
  4.645479e-01    4.468705e-02
  5.756770e-01    3.016715e-02
  6.868060e-01    3.483631e-02
  7.979350e-01    1.972848e-01
  9.090640e-01    6.055254e-01
  1.020193e+00    1.250373e+00
  1.131322e+00    1.547576e+00
  1.242451e+00    2.272436e+00
  1.353580e+00    2.858580e+00
  1.464709e+00    3.006042e+00
  1.575838e+00    2.986946e+00
  1.686967e+00    3.159341e+00
  1.798096e+00    2.930378e+00
  1.909225e+00    3.068482e+00
  2.020354e+00    3.049949e+00
  2.131483e+00    3.100775e+00
  2.242612e+00    3.089683e+00
  2.353741e+00    3.171656e+00
  2.464870e+00    3.105958e+00
  2.575999e+00    3.192291e+00
  2.687128e+00    3.264468e+00
  2.798257e+00    3.208587e+00
  2.909386e+00    3.305374e+00
  3.020515e+00    3.288942e+00
  3.131644e+00    3.369400e+00
  3.242773e+00    3.485015e+00
  3.353902e+00    3.479971e+00
  3.465031e+00    3.419341e+00
  3.576160e+00    3.414462e+00
  3.687289e+00    3.457550e+00
  3.798418e+00    3.527849e+00
  3.909547e+00    3.494661e+00
  4.020676e+00    3.462055e+00
  4.131806e+00    3.501107e+00
  4.242935e+00    3.548765e+00
  4.354064e+00    3.546029e+00
  4.465193e+00    3.630333e+00
  4.576322e+00    3.689636e+00
  4.687451e+00    3.589055e+00
  4.798580e+00    3.621297e+00
  4.909709e+00    3.735240e+00
  5.020838e+00    3.665901e+00
  5.131967e+00    3.678964e+00
  5.243096e+00    3.668228e+00
  5.354225e+00    3.661933e+00
  5.465354e+00    3.570372e+00
  5.576483e+00    3.516232e+00
  5.687612e+00    3.549860e+00
  5.798741e+00    3.560491e+00
  5.909870e+00    3.499910e+00
  6.020999e+00    3.526217e+00
  6.132128e+00    3.574516e+00
  6.243257e+00    3.573757e+00
  6.354386e+00    3.513573e+00
  6.465515e+00    3.541584e+00
  6.576644e+00    3.455308e+00
  6.687773e+00    3.498899e+00
  6.798902e+00    3.547965e+00
  6.910031e+00    3.621548e+00
  7.021160e+00    3.564095e+00
  7.132289e+00    3.586899e+00
  7.243418e+00    3.557479e+00
  7.354547e+00    3.543892e+00
  7.465676e+00    3.503301e+00
  7.576805e+00    3.514127e+00
  7.687934e+00    3.469511e+00
  7.799063e+00    3.532622e+00
  7.910192e+00    3.495495e+00
  8.021321e+00    3.429868e+00
  8.132450e+00    3.432763e+00
  8.243579e+00    3.448060e+00
  8.354708e+00    3.469740e+00
  8.465837e+00    3.311584e+00
  8.576966e+00    3.366371e+00
  8.688095e+00    3.314609e+00
  8.799224e+00    3.260616e+00
  8.910353e+00    3.304127e+00
  9.021482e+00    3.203691e+00
  9.132611e+00    3.264522e+00
  9.243740e+00    3.196788e+00
  9.354869e+00    3.208151e+00
  9.465998e+00    3.182018e+00
  9.577127e+00    3.192269e+00
  9.688256e+00    3.190842e+00
  9.799385e+00    3.151332e+00
  9.910514e+00    3.058009e+00
  1.002164e+01    3.120295e+00
  1.013277e+01    3.035089e+00
  1.024390e+01    3.093193e+00
  1.035503e+01    3.020027e+00
  1.046616e+01    2.964205e+00
  1.057729e+01    2.986337e+00
  1.068842e+01    3.012429e+00
  1.079955e+01    2.953899e+00
  1.091068e+01    2.973029e+00
  1.102180e+01    2.906533e+00
  1.113293e+01    2.930346e+00
  1.124406e+01    2.883412e+00
  1.135519e+01    2.843014e+00
  1.146632e+01    2.817126e+00
  1.157745e+01    2.851339e+00
  1.168858e+01    2.764950e+00
  1.179971e+01    2.717528e+00
  1.191084e+01    2.720229e+00
  1.202197e+01    2.730536e+00
  1.213309e+01    2.677797e+00
  1.224422e+01    2.730083e+00
  1.235535e+01    2.690089e+00
  1.246648e+01    2.681456e+00
  1.257761e+01    2.735254e+00
  1.268874e+01    2.791983e+00
  1.279987e+01    2.979450e+00
  1.291100e+01    3.647320e+00
  1.302213e+01    6.750552e+00
  1.313326e+01    1.482850e+01
  1.324438e+01    1.071623e+01
  1.335551e+01    4.488428e+00
  1.346664e+01    3.124711e+00
  1.357777e+01    2.781415e+00
  1.368890e+01    2.590444e+00
  1.380003e+01    2.478039e+00
  1.391116e+01    2.411076e+00
  1.402229e+01    2.368670e+00
  1.413342e+01    2.301086e+00
  1.424455e+01    2.276248e+00
  1.435568e+01    2.257748e+00
  1.446680e+01    2.212865e+00
  1.457793e+01    2.164635e+00
  1.468906e+01    2.175936e+00
  1.480019e+01    2.202852e+00
  1.491132e+01    2.293311e+00
  1.502245e+01    2.481654e+00
  1.513358e+01    3.786078e+00
  1.524471e+01    5.775691e+00
  1.535584e+01    3.766836e+00
  1.546697e+01    2.446808e+00
  1.557809e+01    2.113429e+00
  1.568922e+01    2.011316e+00
  1.580035e+01    1.944795e+00
  1.591148e+01    1.918524e+00
  1.602261e+01    1.857534e+00
  1.613374e+01    1.826519e+00
  1.624487e+01    1.769742e+00
  1.635600e+01    1.753333e+00
  1.646713e+01    1.791352e+00
  1.657826e+01    1.780966e+00
  1.668938e+01    1.703390e+00
  1.680051e+01    1.719092e+00
  1.691164e+01    1.685646e+00
  1.702277e+01    1.671625e+00
  1.713390e+01    1.623953e+00
  1.724503e+01    1.612962e+00
  1.735616e+01    1.602712e+00
  1.746729e+01    1.602206e+00
  1.757842e+01    1.573788e+00
  1.768955e+01    1.553374e+00
  1.780067e+01    1.508209e+00
  1.791180e+01    1.509843e+00
  1.802293e+01    1.550466e+00
  1.813406e+01    1.482583e+00
  1.824519e+01    1.503651e+00
  1.835632e+01    1.489810e+00
  1.846745e+01    1.427291e+00
  1.857858e+01    1.428628e+00
  1.868971e+01    1.421720e+00
  1.880084e+01    1.410499e+00
  1.891196e+01    1.395991e+00
  1.902309e+01    1.375075e+00
  1.913422e+01    1.369067e+00
  1.924535e+01    1.365263e+00
  1.935648e+01    1.342683e+00
  1.946761e+01    1.373386e+00
  1.957874e+01    1.346755e+00
  1.968987e+01    1.341529e+00
  1.980100e+01    1.312955e+00
  1.991213e+01    1.292863e+00
  2.002325e+01    1.281563e+00
  2.013438e+01    1.286062e+00
  2.024551e+01    1.227252e+00
  2.035664e+01    1.266657e+00
  2.046777e+01    1.234862e+00
  2.057890e+01    1.228416e+00
  2.069003e+01    1.217149e+00
  2.080116e+01    1.242184e+00
  2.091229e+01    1.230177e+00
  2.102342e+01    1.220178e+00
  2.113455e+01    1.238829e+00
  2.124567e+01    1.244072e+00
  2.135680e+01    1.253999e+00
  2.146793e+01    1.356828e+00
  2.157906e+01    1.628682e+00
  2.169019e+01    2.512284e+00
  2.180132e+01    5.887760e+00
  2.191245e+01    8.748875e+00
  2.202358e+01    3.645440e+00
  2.213471e+01    1.873441e+00
  2.224584e+01    1.404002e+00
  2.235696e+01    1.224884e+00
  2.246809e+01    1.186262e+00
  2.257922e+01    1.110636e+00
  2.269035e+01    1.071014e+00
  2.280148e+01    1.080393e+00
  2.291261e+01    1.041198e+00
  2.302374e+01    1.039242e+00
  2.313487e+01    9.916438e-01
  2.324600e+01    9.854512e-01
  2.335713e+01    9.861237e-01
  2.346825e+01    9.865672e-01
  2.357938e+01    9.525684e-01
  2.369051e+01    9.569639e-01
  2.380164e+01    9.499944e-01
  2.391277e+01    9.053859e-01
  2.402390e+01    9.111741e-01
  2.413503e+01    9.040706e-01
  2.424616e+01    8.994786e-01
  2.435729e+01    8.967872e-01
  2.446842e+01    8.877628e-01
  2.457954e+01    8.940715e-01
  2.469067e+01    8.921977e-01
  2.480180e+01    8.988457e-01
  2.491293e+01    8.872408e-01
  2.502406e+01    9.056865e-01
  2.513519e+01    9.149200e-01
  2.524632e+01    9.543279e-01
  2.535745e+01    9.648452e-01
  2.546858e+01    1.019428e+00
  2.557971e+01    1.156988e+00
  2.569083e+01    1.508120e+00
  2.580196e+01    2.805164e+00
  2.591309e+01    6.377349e+00
  2.602422e+01    5.310268e+00
  2.613535e+01    2.138091e+00
  2.624648e+01    1.342698e+00
  2.635761e+01    1.104781e+00
  2.646874e+01    1.024287e+00
  2.657987e+01    9.790031e-01
  2.669100e+01    9.769575e-01
  2.680212e+01    9.623886e-01
  2.691325e+01    9.876695e-01
  2.702438e+01    1.154649e+00
  2.713551e+01    1.736320e+00
  2.724664e+01    2.105115e+00
  2.735777e+01    1.298484e+00
  2.746890e+01    1.003770e+00
  2.758003e+01    9.464472e-01
  2.769116e+01    9.104264e-01
  2.780229e+01    9.022008e-01
  2.791342e+01    8.943193e-01
  2.802454e+01    8.825524e-01
  2.813567e+01    8.748477e-01
  2.824680e+01    8.520042e-01
  2.835793e+01    8.593817e-01
  2.846906e+01    8.328428e-01
  2.858019e+01    8.558658e-01
  2.869132e+01    8.265102e-01
  2.880245e+01    8.339225e-01
  2.891358e+01    8.328458e-01
  2.902471e+01    8.150224e-01
  2.913583e+01    8.162258e-01
  2.924696e+01    8.007960e-01
  2.935809e+01    8.073744e-01
  2.946922e+01    8.010710e-01
  2.958035e+01    7.854914e-01
  2.969148e+01    8.040761e-01
  2.980261e+01    8.013269e-01
  2.991374e+01    7.935479e-01
  3.002487e+01    8.112618e-01
  3.013600e+01    8.064277e-01
  3.024712e+01    7.924505e-01
  3.035825e+01    7.951009e-01
  3.046938e+01    7.833824e-01
  3.058051e+01    7.827407e-01
  3.069164e+01    7.760673e-01
  3.080277e+01    7.885839e-01
  3.091390e+01    7.813860e-01
  3.102503e+01    7.956719e-01
  3.113616e+01    8.001688e-01
  3.124729e+01    8.169085e-01
  3.135841e+01    8.088121e-01
  3.146954e+01    7.963343e-01
  3.158067e+01    8.683304e-01
  3.169180e+01    1.008210e+00
  3.180293e+01    1.469866e+00
  3.191406e+01    2.097291e+00
  3.202519e+01    1.305592e+00
  3.213632e+01    9.509134e-01
  3.224745e+01    8.062171e-01
  3.235858e+01    8.241289e-01
  3.246970e+01    7.977678e-01
  3.254908e+01    7.740630e-01

File: 2024-07-27_003_Ru-CGO-ex_Reaction_dwell_000023_data_000107.dat
# == pyFAI calibration ==
# Distance Sample to Detector: 0.4 m
# PONI: 9.750e-02, 1.135e-01 m
# Rotations: -0.000175 0.000000 -0.000000 rad
#
# == Fit2d calibration ==
# Distance Sample-beamCenter: 400.000 mm
# Center: x=1514.000, y=1300.000 pix
# Tilt: 0.010 deg  TiltPlanRot: 0.010 deg
#
# Detector Detector	 Spline= None	 PixelSize= 7.500e-05, 7.500e-05 m
#    Detector has a mask: False
#    Detector has a dark current: False
#    detector has a flat field: False
#
# Wavelength: 6.888e-11 m
# Mask applied: user provided
# Dark current applied: False
# Flat field applied: False
# Polarization factor: 0.99
# Normalization factor: 1.0
# --> /home/myspot/data/2024_07_Rosario/Ru-CGO-ex/2024-07-27_003_Ru-CGO-ex_Reaction_dwell_000023_data_000107.dat
#       q_nm^-1             I
  2.003187e-02    0.000000e+00
  1.311609e-01    6.558888e-02
  2.422899e-01    5.632868e-02
  3.534189e-01    6.465475e-02
  4.645479e-01    3.674290e-02
  5.756770e-01    4.992833e-02
  6.868060e-01    6.341021e-02
  7.979350e-01    1.423828e-01
  9.090640e-01    6.511860e-01
  1.020193e+00    1.320271e+00
  1.131322e+00    1.727114e+00
  1.242451e+00    2.329651e+00
  1.353580e+00    2.857138e+00
  1.464709e+00    3.058881e+00
  1.575838e+00    3.115085e+00
  1.686967e+00    3.114175e+00
  1.798096e+00    3.258877e+00
  1.909225e+00    3.126091e+00
  2.020354e+00    3.003395e+00
  2.131483e+00    3.025966e+00
  2.242612e+00    3.240830e+00
  2.353741e+00    3.098132e+00
  2.464870e+00    3.132624e+00
  2.575999e+00    3.164846e+00
  2.687128e+00    3.246794e+00
  2.798257e+00    3.367371e+00
  2.909386e+00    3.265310e+00
  3.020515e+00    3.365352e+00
  3.131644e+00    3.430966e+00
  3.242773e+00    3.425488e+00
  3.353902e+00    3.450882e+00
  3.465031e+00    3.364399e+00
  3.576160e+00    3.515728e+00
  3.687289e+00    3.454550e+00
  3.798418e+00    3.485386e+00
  3.909547e+00    3.592655e+00
  4.020676e+00    3.532333e+00
  4.131806e+00    3.607069e+00
  4.242935e+00    3.552671e+00
  4.354064e+00    3.506055e+00
  4.465193e+00    3.654996e+00
  4.576322e+00    3.515893e+00
  4.687451e+00    3.612938e+00
  4.798580e+00    3.563061e+00
  4.909709e+00    3.724458e+00
  5.020838e+00    3.661625e+00
  5.131967e+00    3.722087e+00
  5.243096e+00    3.643575e+00
  5.354225e+00    3.639667e+00
  5.465354e+00    3.657718e+00
  5.576483e+00    3.561025e+00
  5.687612e+00    3.524409e+00
  5.798741e+00    3.575883e+00
  5.909870e+00    3.567824e+00
  6.020999e+00    3.525511e+00
  6.132128e+00    3.575100e+00
  6.243257e+00    3.517346e+00
  6.354386e+00    3.586247e+00
  6.465515e+00    3.608183e+00
  6.576644e+00    3.561608e+00
  6.687773e+00    3.545826e+00
  6.798902e+00    3.589366e+00
  6.910031e+00    3.544308e+00
  7.021160e+00    3.484894e+00
  7.132289e+00    3.524814e+00
  7.243418e+00    3.508957e+00
  7.354547e+00    3.529100e+00
  7.465676e+00    3.525396e+00
  7.576805e+00    3.491186e+00
  7.687934e+00    3.475268e+00
  7.799063e+00    3.397668e+00
  7.910192e+00    3.455603e+00
  8.021321e+00    3.464112e+00
  8.132450e+00    3.425293e+00
  8.243579e+00    3.486830e+00
  8.354708e+00    3.442262e+00
  8.465837e+00    3.381788e+00
  8.576966e+00    3.380621e+00
  8.688095e+00    3.358901e+00
  8.799224e+00    3.325951e+00
  8.910353e+00    3.295769e+00
  9.021482e+00    3.242660e+00
  9.132611e+00    3.304501e+00
  9.243740e+00    3.252056e+00
  9.354869e+00    3.215739e+00
  9.465998e+00    3.274679e+00
  9.577127e+00    3.228259e+00
  9.688256e+00    3.191980e+00
  9.799385e+00    3.211845e+00
  9.910514e+00    3.155329e+00
  1.002164e+01    3.166448e+00
  1.013277e+01    3.131539e+00
  1.024390e+01    3.045809e+00
  1.035503e+01    3.103581e+00
  1.046616e+01    3.082515e+00
  1.057729e+01    2.985822e+00
  1.068842e+01    3.070678e+00
  1.079955e+01    2.957240e+00
  1.091068e+01    2.937262e+00
  1.102180e+01    2.860189e+00
  1.113293e+01    2.918083e+00
  1.124406e+01    2.860897e+00
  1.135519e+01    2.820960e+00
  1.146632e+01    2.824248e+00
  1.157745e+01    2.780475e+00
  1.168858e+01    2.794293e+00
  1.179971e+01    2.698842e+00
  1.191084e+01    2.754522e+00
  1.202197e+01    2.727364e+00
  1.213309e+01    2.738720e+00
  1.224422e+01    2.677766e+00
  1.235535e+01    2.647639e+00
  1.246648e+01    2.721680e+00
  1.257761e+01    2.753646e+00
  1.268874e+01    2.859825e+00
  1.279987e+01    3.025043e+00
  1.291100e+01    3.709777e+00
  1.302213e+01    6.682225e+00
  1.313326e+01    1.480097e+01
  1.324438e+01    1.077483e+01
  1.335551e+01    4.464408e+00
  1.346664e+01    3.127902e+00
  1.357777e+01    2.770232e+00
  1.368890e+01    2.605022e+00
  1.380003e+01    2.445309e+00
  1.391116e+01    2.438356e+00
  1.402229e+01    2.366489e+00
  1.413342e+01    2.317671e+00
  1.424455e+01    2.266498e+00
  1.435568e+01    2.232481e+00
  1.446680e+01    2.268681e+00
  1.457793e+01    2.204996e+00
  1.468906e+01    2.220131e+00
  1.480019e+01    2.192384e+00
  1.491132e+01    2.257895e+00
  1.502245e+01    2.549279e+00
  1.513358e+01    3.808751e+00
  1.524471e+01    5.789680e+00
  1.535584e+01    3.757794e+00
  1.546697e+01    2.466312e+00
  1.557809e+01    2.176695e+00
  1.568922e+01    2.011943e+00
  1.580035e+01    1.921569e+00
  1.591148e+01    1.923460e+00
  1.602261e+01    1.885609e+00
  1.613374e+01    1.845769e+00
  1.624487e+01    1.840247e+00
  1.635600e+01    1.848614e+00
  1.646713e+01    1.756858e+00
  1.657826e+01    1.758453e+00
  1.668938e+01    1.759832e+00
  1.680051e+01    1.721312e+00
  1.691164e+01    1.732130e+00
  1.702277e+01    1.693027e+00
  1.713390e+01    1.689572e+00
  1.724503e+01    1.604599e+00
  1.735616e+01    1.650151e+00
  1.746729e+01    1.624890e+00
  1.757842e+01    1.609783e+00
  1.768955e+01    1.595399e+00
  1.780067e+01    1.570965e+00
  1.791180e+01    1.571234e+00
  1.802293e+01    1.500561e+00
  1.813406e+01    1.508851e+00
  1.824519e+01    1.445890e+00
  1.835632e+01    1.480821e+00
  1.846745e+01    1.452189e+00
  1.857858e+01    1.469445e+00
  1.868971e+01    1.416736e+00
  1.880084e+01    1.431934e+00
  1.891196e+01    1.401603e+00
  1.902309e+01    1.422072e+00
  1.913422e+01    1.388671e+00
  1.924535e+01    1.375333e+00
  1.935648e+01    1.366492e+00
  1.946761e+01    1.317585e+00
  1.957874e+01    1.346834e+00
  1.968987e+01    1.341125e+00
  1.980100e+01    1.312504e+00
  1.991213e+01    1.302194e+00
  2.002325e+01    1.270333e+00
  2.013438e+01    1.313660e+00
  2.024551e+01    1.277778e+00
  2.035664e+01    1.269550e+00
  2.046777e+01    1.259820e+00
  2.057890e+01    1.234559e+00
  2.069003e+01    1.236884e+00
  2.080116e+01    1.232926e+00
  2.091229e+01    1.238623e+00
  2.102342e+01    1.247438e+00
  2.113455e+01    1.231636e+00
  2.124567e+01    1.240804e+00
  2.135680e+01    1.294778e+00
  2.146793e+01    1.375522e+00
  2.157906e+01    1.619431e+00
  2.169019e+01    2.504678e+00
  2.180132e+01    5.901527e+00
  2.191245e+01    8.850691e+00
  2.202358e+01    3.607839e+00
  2.213471e+01    1.898730e+00
  2.224584e+01    1.421027e+00
  2.235696e+01    1.246330e+00
  2.246809e+01    1.166086e+00
  2.257922e+01    1.110932e+00
  2.269035e+01    1.078310e+00
  2.280148e+01    1.045076e+00
  2.291261e+01    1.028718e+00
  2.302374e+01    1.015488e+00
  2.313487e+01    1.005409e+00
  2.324600e+01    1.013653e+00
  2.335713e+01    1.005148e+00
  2.346825e+01    9.831676e-01
  2.357938e+01    9.648204e-01
  2.369051e+01    9.588705e-01
  2.380164e+01    9.136489e-01
  2.391277e+01    9.159490e-01
  2.402390e+01    9.080638e-01
  2.413503e+01    8.754713e-01
  2.424616e+01    8.662643e-01
  2.435729e+01    8.925684e-01
  2.446842e+01    8.945126e-01
  2.457954e+01    8.862011e-01
  2.469067e+01    9.116465e-01
  2.480180e+01    9.125496e-01
  2.491293e+01    8.995457e-01
  2.502406e+01    9.127420e-01
  2.513519e+01    9.063858e-01
  2.524632e+01    9.445799e-01
  2.535745e+01    9.924188e-01
  2.546858e+01    1.026376e+00
  2.557971e+01    1.168413e+00
  2.569083e+01    1.521148e+00
  2.580196e+01    2.798783e+00
  2.591309e+01    6.390690e+00
  2.602422e+01    5.344470e+00
  2.613535e+01    2.120916e+00
  2.624648e+01    1.370973e+00
  2.635761e+01    1.110180e+00
  2.646874e+01    1.045498e+00
  2.657987e+01    1.015493e+00
  2.669100e+01    9.575962e-01
  2.680212e+01    9.805242e-01
  2.691325e+01    1.023063e+00
  2.702438e+01    1.182001e+00
  2.713551e+01    1.702906e+00
  2.724664e+01    2.121279e+00
  2.735777e+01    1.281770e+00
  2.746890e+01    1.023677e+00
  2.758003e+01    9.538774e-01
  2.769116e+01    9.102445e-01
  2.780229e+01    8.923840e-01
  2.791342e+01    8.676827e-01
  2.802454e+01    8.866017e-01
  2.813567e+01    8.614313e-01
  2.824680e+01    8.475345e-01
  2.835793e+01    8.624697e-01
  2.846906e+01    8.741801e-01
  2.858019e+01    8.426955e-01
  2.869132e+01    8.328531e-01
  2.880245e+01    8.549905e-01
  2.891358e+01    8.162695e-01
  2.902471e+01    8.296342e-01
  2.913583e+01    8.359559e-01
  2.924696e+01    8.140059e-01
  2.935809e+01    8.238101e-01
  2.946922e+01    8.055468e-01
  2.958035e+01    8.094993e-01
  2.969148e+01    8.024712e-01
  2.980261e+01    8.162349e-01
  2.991374e+01    7.981684e-01
  3.002487e+01    8.187892e-01
  3.013600e+01    8.013902e-01
  3.024712e+01    7.988252e-01
  3.035825e+01    7.881573e-01
  3.046938e+01    7.929256e-01
  3.058051e+01    7.808486e-01
  3.069164e+01    7.669477e-01
  3.080277e+01    7.838758e-01
  3.091390e+01    7.924054e-01
  3.102503e+01    7.865122e-01
  3.113616e+01    7.961042e-01
  3.124729e+01    7.946988e-01
  3.135841e+01    8.101153e-01
  3.146954e+01    8.257649e-01
  3.158067e+01    8.744726e-01
  3.169180e+01    1.018177e+00
  3.180293e+01    1.468019e+00
  3.191406e+01    2.087306e+00
  3.202519e+01    1.311574e+00
  3.213632e+01    9.480094e-01
  3.224745e+01    8.573153e-01
  3.235858e+01    8.073691e-01
  3.246970e+01    8.109468e-01
  3.254908e+01    7.696913e-01