Folder: myspot_2024_07/XRD/Reaction conditions (part 36)

File: 2024-07-27_003_Ru-CGO-ex_Reaction_dwell_000023_data_000095.dat
# == pyFAI calibration ==
# Distance Sample to Detector: 0.4 m
# PONI: 9.750e-02, 1.135e-01 m
# Rotations: -0.000175 0.000000 -0.000000 rad
#
# == Fit2d calibration ==
# Distance Sample-beamCenter: 400.000 mm
# Center: x=1514.000, y=1300.000 pix
# Tilt: 0.010 deg  TiltPlanRot: 0.010 deg
#
# Detector Detector	 Spline= None	 PixelSize= 7.500e-05, 7.500e-05 m
#    Detector has a mask: False
#    Detector has a dark current: False
#    detector has a flat field: False
#
# Wavelength: 6.888e-11 m
# Mask applied: user provided
# Dark current applied: False
# Flat field applied: False
# Polarization factor: 0.99
# Normalization factor: 1.0
# --> /home/myspot/data/2024_07_Rosario/Ru-CGO-ex/2024-07-27_003_Ru-CGO-ex_Reaction_dwell_000023_data_000095.dat
#       q_nm^-1             I
  2.003187e-02    2.226973e-02
  1.311609e-01    4.405557e-02
  2.422899e-01    3.184851e-02
  3.534189e-01    5.817780e-02
  4.645479e-01    6.224196e-02
  5.756770e-01    6.118777e-02
  6.868060e-01    3.487468e-02
  7.979350e-01    1.684296e-01
  9.090640e-01    6.839046e-01
  1.020193e+00    1.353005e+00
  1.131322e+00    1.657939e+00
  1.242451e+00    2.323954e+00
  1.353580e+00    2.701225e+00
  1.464709e+00    2.913265e+00
  1.575838e+00    3.071127e+00
  1.686967e+00    3.027549e+00
  1.798096e+00    3.005107e+00
  1.909225e+00    3.030588e+00
  2.020354e+00    3.039150e+00
  2.131483e+00    3.089034e+00
  2.242612e+00    3.174713e+00
  2.353741e+00    3.262728e+00
  2.464870e+00    3.173431e+00
  2.575999e+00    3.234074e+00
  2.687128e+00    3.238977e+00
  2.798257e+00    3.185577e+00
  2.909386e+00    3.223869e+00
  3.020515e+00    3.393656e+00
  3.131644e+00    3.270590e+00
  3.242773e+00    3.460172e+00
  3.353902e+00    3.298652e+00
  3.465031e+00    3.415732e+00
  3.576160e+00    3.533437e+00
  3.687289e+00    3.528160e+00
  3.798418e+00    3.509485e+00
  3.909547e+00    3.534051e+00
  4.020676e+00    3.555782e+00
  4.131806e+00    3.524867e+00
  4.242935e+00    3.585456e+00
  4.354064e+00    3.503953e+00
  4.465193e+00    3.508841e+00
  4.576322e+00    3.690497e+00
  4.687451e+00    3.635938e+00
  4.798580e+00    3.689753e+00
  4.909709e+00    3.601841e+00
  5.020838e+00    3.649411e+00
  5.131967e+00    3.675856e+00
  5.243096e+00    3.655771e+00
  5.354225e+00    3.674484e+00
  5.465354e+00    3.630775e+00
  5.576483e+00    3.609561e+00
  5.687612e+00    3.643847e+00
  5.798741e+00    3.619352e+00
  5.909870e+00    3.544778e+00
  6.020999e+00    3.613121e+00
  6.132128e+00    3.608325e+00
  6.243257e+00    3.562395e+00
  6.354386e+00    3.574334e+00
  6.465515e+00    3.590862e+00
  6.576644e+00    3.627074e+00
  6.687773e+00    3.528506e+00
  6.798902e+00    3.551609e+00
  6.910031e+00    3.550966e+00
  7.021160e+00    3.587876e+00
  7.132289e+00    3.497363e+00
  7.243418e+00    3.500977e+00
  7.354547e+00    3.487116e+00
  7.465676e+00    3.423251e+00
  7.576805e+00    3.545409e+00
  7.687934e+00    3.420373e+00
  7.799063e+00    3.468475e+00
  7.910192e+00    3.464349e+00
  8.021321e+00    3.388125e+00
  8.132450e+00    3.504118e+00
  8.243579e+00    3.457309e+00
  8.354708e+00    3.411667e+00
  8.465837e+00    3.376638e+00
  8.576966e+00    3.325277e+00
  8.688095e+00    3.350181e+00
  8.799224e+00    3.319167e+00
  8.910353e+00    3.325318e+00
  9.021482e+00    3.318266e+00
  9.132611e+00    3.266411e+00
  9.243740e+00    3.238518e+00
  9.354869e+00    3.183827e+00
  9.465998e+00    3.199807e+00
  9.577127e+00    3.159452e+00
  9.688256e+00    3.216972e+00
  9.799385e+00    3.146033e+00
  9.910514e+00    3.150563e+00
  1.002164e+01    3.073181e+00
  1.013277e+01    3.093872e+00
  1.024390e+01    3.043007e+00
  1.035503e+01    3.069515e+00
  1.046616e+01    2.977246e+00
  1.057729e+01    2.995158e+00
  1.068842e+01    2.941214e+00
  1.079955e+01    2.945034e+00
  1.091068e+01    2.873506e+00
  1.102180e+01    2.893730e+00
  1.113293e+01    2.879240e+00
  1.124406e+01    2.849058e+00
  1.135519e+01    2.849628e+00
  1.146632e+01    2.751813e+00
  1.157745e+01    2.792924e+00
  1.168858e+01    2.749491e+00
  1.179971e+01    2.720250e+00
  1.191084e+01    2.724552e+00
  1.202197e+01    2.708908e+00
  1.213309e+01    2.707828e+00
  1.224422e+01    2.711864e+00
  1.235535e+01    2.666719e+00
  1.246648e+01    2.685821e+00
  1.257761e+01    2.762226e+00
  1.268874e+01    2.830614e+00
  1.279987e+01    2.988219e+00
  1.291100e+01    3.593749e+00
  1.302213e+01    6.602854e+00
  1.313326e+01    1.472973e+01
  1.324438e+01    1.071677e+01
  1.335551e+01    4.420866e+00
  1.346664e+01    3.140458e+00
  1.357777e+01    2.721106e+00
  1.368890e+01    2.583516e+00
  1.380003e+01    2.469786e+00
  1.391116e+01    2.363337e+00
  1.402229e+01    2.414273e+00
  1.413342e+01    2.295512e+00
  1.424455e+01    2.278199e+00
  1.435568e+01    2.216188e+00
  1.446680e+01    2.252829e+00
  1.457793e+01    2.250177e+00
  1.468906e+01    2.197050e+00
  1.480019e+01    2.180879e+00
  1.491132e+01    2.223909e+00
  1.502245e+01    2.525047e+00
  1.513358e+01    3.834628e+00
  1.524471e+01    5.781930e+00
  1.535584e+01    3.760947e+00
  1.546697e+01    2.365726e+00
  1.557809e+01    2.131747e+00
  1.568922e+01    1.992637e+00
  1.580035e+01    1.905792e+00
  1.591148e+01    1.889151e+00
  1.602261e+01    1.904137e+00
  1.613374e+01    1.853644e+00
  1.624487e+01    1.820347e+00
  1.635600e+01    1.784183e+00
  1.646713e+01    1.748373e+00
  1.657826e+01    1.742616e+00
  1.668938e+01    1.692019e+00
  1.680051e+01    1.713203e+00
  1.691164e+01    1.666296e+00
  1.702277e+01    1.690270e+00
  1.713390e+01    1.613074e+00
  1.724503e+01    1.635474e+00
  1.735616e+01    1.612616e+00
  1.746729e+01    1.607536e+00
  1.757842e+01    1.531322e+00
  1.768955e+01    1.553893e+00
  1.780067e+01    1.539349e+00
  1.791180e+01    1.500888e+00
  1.802293e+01    1.503844e+00
  1.813406e+01    1.494038e+00
  1.824519e+01    1.485983e+00
  1.835632e+01    1.450055e+00
  1.846745e+01    1.454962e+00
  1.857858e+01    1.453003e+00
  1.868971e+01    1.441026e+00
  1.880084e+01    1.396877e+00
  1.891196e+01    1.396149e+00
  1.902309e+01    1.373658e+00
  1.913422e+01    1.373140e+00
  1.924535e+01    1.345989e+00
  1.935648e+01    1.313554e+00
  1.946761e+01    1.324415e+00
  1.957874e+01    1.330867e+00
  1.968987e+01    1.291672e+00
  1.980100e+01    1.309785e+00
  1.991213e+01    1.293423e+00
  2.002325e+01    1.277930e+00
  2.013438e+01    1.279883e+00
  2.024551e+01    1.271801e+00
  2.035664e+01    1.245306e+00
  2.046777e+01    1.241631e+00
  2.057890e+01    1.239836e+00
  2.069003e+01    1.214869e+00
  2.080116e+01    1.230773e+00
  2.091229e+01    1.204677e+00
  2.102342e+01    1.193002e+00
  2.113455e+01    1.233657e+00
  2.124567e+01    1.233891e+00
  2.135680e+01    1.282675e+00
  2.146793e+01    1.364237e+00
  2.157906e+01    1.608945e+00
  2.169019e+01    2.472415e+00
  2.180132e+01    5.756064e+00
  2.191245e+01    8.745203e+00
  2.202358e+01    3.606949e+00
  2.213471e+01    1.842713e+00
  2.224584e+01    1.427442e+00
  2.235696e+01    1.239760e+00
  2.246809e+01    1.171689e+00
  2.257922e+01    1.102158e+00
  2.269035e+01    1.089260e+00
  2.280148e+01    1.049877e+00
  2.291261e+01    1.063757e+00
  2.302374e+01    1.021286e+00
  2.313487e+01    1.004709e+00
  2.324600e+01    9.919118e-01
  2.335713e+01    9.725194e-01
  2.346825e+01    9.709351e-01
  2.357938e+01    9.574602e-01
  2.369051e+01    9.638914e-01
  2.380164e+01    9.254081e-01
  2.391277e+01    9.068812e-01
  2.402390e+01    8.961423e-01
  2.413503e+01    8.807189e-01
  2.424616e+01    8.815535e-01
  2.435729e+01    8.931800e-01
  2.446842e+01    8.930544e-01
  2.457954e+01    8.850662e-01
  2.469067e+01    8.846381e-01
  2.480180e+01    8.734571e-01
  2.491293e+01    8.726729e-01
  2.502406e+01    8.890596e-01
  2.513519e+01    8.964254e-01
  2.524632e+01    9.317814e-01
  2.535745e+01    9.599342e-01
  2.546858e+01    1.031866e+00
  2.557971e+01    1.153552e+00
  2.569083e+01    1.489659e+00
  2.580196e+01    2.774922e+00
  2.591309e+01    6.271553e+00
  2.602422e+01    5.340146e+00
  2.613535e+01    2.155174e+00
  2.624648e+01    1.363112e+00
  2.635761e+01    1.112842e+00
  2.646874e+01    1.011304e+00
  2.657987e+01    9.750662e-01
  2.669100e+01    9.665177e-01
  2.680212e+01    9.803114e-01
  2.691325e+01    1.014307e+00
  2.702438e+01    1.144730e+00
  2.713551e+01    1.698845e+00
  2.724664e+01    2.074596e+00
  2.735777e+01    1.279847e+00
  2.746890e+01    1.023394e+00
  2.758003e+01    9.442543e-01
  2.769116e+01    9.082510e-01
  2.780229e+01    8.924299e-01
  2.791342e+01    8.898906e-01
  2.802454e+01    8.563950e-01
  2.813567e+01    8.463830e-01
  2.824680e+01    8.275654e-01
  2.835793e+01    8.411391e-01
  2.846906e+01    8.279667e-01
  2.858019e+01    8.414506e-01
  2.869132e+01    8.377229e-01
  2.880245e+01    8.262585e-01
  2.891358e+01    8.030245e-01
  2.902471e+01    8.087333e-01
  2.913583e+01    8.118647e-01
  2.924696e+01    8.029438e-01
  2.935809e+01    7.778625e-01
  2.946922e+01    8.140524e-01
  2.958035e+01    8.073220e-01
  2.969148e+01    8.056238e-01
  2.980261e+01    7.876939e-01
  2.991374e+01    7.964408e-01
  3.002487e+01    8.396909e-01
  3.013600e+01    7.858110e-01
  3.024712e+01    7.840716e-01
  3.035825e+01    7.932390e-01
  3.046938e+01    7.683882e-01
  3.058051e+01    7.594428e-01
  3.069164e+01    7.498330e-01
  3.080277e+01    7.938375e-01
  3.091390e+01    7.671051e-01
  3.102503e+01    7.714685e-01
  3.113616e+01    7.815914e-01
  3.124729e+01    7.943813e-01
  3.135841e+01    8.360699e-01
  3.146954e+01    8.146885e-01
  3.158067e+01    8.533900e-01
  3.169180e+01    9.829723e-01
  3.180293e+01    1.425929e+00
  3.191406e+01    2.071522e+00
  3.202519e+01    1.304371e+00
  3.213632e+01    9.446228e-01
  3.224745e+01    8.358833e-01
  3.235858e+01    7.730039e-01
  3.246970e+01    7.814546e-01
  3.254908e+01    7.855651e-01

File: 2024-07-27_003_Ru-CGO-ex_Reaction_dwell_000023_data_000096.dat
# == pyFAI calibration ==
# Distance Sample to Detector: 0.4 m
# PONI: 9.750e-02, 1.135e-01 m
# Rotations: -0.000175 0.000000 -0.000000 rad
#
# == Fit2d calibration ==
# Distance Sample-beamCenter: 400.000 mm
# Center: x=1514.000, y=1300.000 pix
# Tilt: 0.010 deg  TiltPlanRot: 0.010 deg
#
# Detector Detector	 Spline= None	 PixelSize= 7.500e-05, 7.500e-05 m
#    Detector has a mask: False
#    Detector has a dark current: False
#    detector has a flat field: False
#
# Wavelength: 6.888e-11 m
# Mask applied: user provided
# Dark current applied: False
# Flat field applied: False
# Polarization factor: 0.99
# Normalization factor: 1.0
# --> /home/myspot/data/2024_07_Rosario/Ru-CGO-ex/2024-07-27_003_Ru-CGO-ex_Reaction_dwell_000023_data_000096.dat
#       q_nm^-1             I
  2.003187e-02    7.712225e-02
  1.311609e-01    9.191508e-02
  2.422899e-01    9.265777e-02
  3.534189e-01    3.126456e-02
  4.645479e-01    4.670649e-02
  5.756770e-01    2.702342e-02
  6.868060e-01    3.128745e-02
  7.979350e-01    1.460112e-01
  9.090640e-01    6.091191e-01
  1.020193e+00    1.237056e+00
  1.131322e+00    1.693855e+00
  1.242451e+00    2.408335e+00
  1.353580e+00    2.766869e+00
  1.464709e+00    2.946474e+00
  1.575838e+00    3.198966e+00
  1.686967e+00    3.031886e+00
  1.798096e+00    3.155325e+00
  1.909225e+00    3.024913e+00
  2.020354e+00    3.031683e+00
  2.131483e+00    3.067513e+00
  2.242612e+00    3.151975e+00
  2.353741e+00    3.216269e+00
  2.464870e+00    3.158091e+00
  2.575999e+00    3.232024e+00
  2.687128e+00    3.265351e+00
  2.798257e+00    3.205622e+00
  2.909386e+00    3.207231e+00
  3.020515e+00    3.375558e+00
  3.131644e+00    3.230984e+00
  3.242773e+00    3.367678e+00
  3.353902e+00    3.328446e+00
  3.465031e+00    3.416431e+00
  3.576160e+00    3.386369e+00
  3.687289e+00    3.453213e+00
  3.798418e+00    3.422026e+00
  3.909547e+00    3.497979e+00
  4.020676e+00    3.482538e+00
  4.131806e+00    3.580987e+00
  4.242935e+00    3.587034e+00
  4.354064e+00    3.537652e+00
  4.465193e+00    3.553601e+00
  4.576322e+00    3.563548e+00
  4.687451e+00    3.639804e+00
  4.798580e+00    3.719472e+00
  4.909709e+00    3.662770e+00
  5.020838e+00    3.648849e+00
  5.131967e+00    3.644523e+00
  5.243096e+00    3.614534e+00
  5.354225e+00    3.656771e+00
  5.465354e+00    3.629777e+00
  5.576483e+00    3.593887e+00
  5.687612e+00    3.565552e+00
  5.798741e+00    3.527148e+00
  5.909870e+00    3.579402e+00
  6.020999e+00    3.559611e+00
  6.132128e+00    3.708797e+00
  6.243257e+00    3.639783e+00
  6.354386e+00    3.497041e+00
  6.465515e+00    3.531433e+00
  6.576644e+00    3.600895e+00
  6.687773e+00    3.549701e+00
  6.798902e+00    3.516668e+00
  6.910031e+00    3.440676e+00
  7.021160e+00    3.580587e+00
  7.132289e+00    3.605402e+00
  7.243418e+00    3.559509e+00
  7.354547e+00    3.524328e+00
  7.465676e+00    3.500064e+00
  7.576805e+00    3.387015e+00
  7.687934e+00    3.423021e+00
  7.799063e+00    3.437588e+00
  7.910192e+00    3.384695e+00
  8.021321e+00    3.383483e+00
  8.132450e+00    3.498553e+00
  8.243579e+00    3.485649e+00
  8.354708e+00    3.430961e+00
  8.465837e+00    3.338761e+00
  8.576966e+00    3.371290e+00
  8.688095e+00    3.332999e+00
  8.799224e+00    3.281365e+00
  8.910353e+00    3.286945e+00
  9.021482e+00    3.231992e+00
  9.132611e+00    3.203581e+00
  9.243740e+00    3.219552e+00
  9.354869e+00    3.284278e+00
  9.465998e+00    3.214895e+00
  9.577127e+00    3.198780e+00
  9.688256e+00    3.130491e+00
  9.799385e+00    3.146962e+00
  9.910514e+00    3.087239e+00
  1.002164e+01    3.109187e+00
  1.013277e+01    3.069416e+00
  1.024390e+01    3.068762e+00
  1.035503e+01    3.060170e+00
  1.046616e+01    2.962273e+00
  1.057729e+01    3.007922e+00
  1.068842e+01    2.909354e+00
  1.079955e+01    2.925749e+00
  1.091068e+01    2.918527e+00
  1.102180e+01    2.916049e+00
  1.113293e+01    2.844378e+00
  1.124406e+01    2.856602e+00
  1.135519e+01    2.853678e+00
  1.146632e+01    2.797823e+00
  1.157745e+01    2.798947e+00
  1.168858e+01    2.777428e+00
  1.179971e+01    2.748242e+00
  1.191084e+01    2.791681e+00
  1.202197e+01    2.680078e+00
  1.213309e+01    2.726820e+00
  1.224422e+01    2.676902e+00
  1.235535e+01    2.712897e+00
  1.246648e+01    2.735898e+00
  1.257761e+01    2.762214e+00
  1.268874e+01    2.801807e+00
  1.279987e+01    2.970949e+00
  1.291100e+01    3.635668e+00
  1.302213e+01    6.615063e+00
  1.313326e+01    1.479617e+01
  1.324438e+01    1.071392e+01
  1.335551e+01    4.430042e+00
  1.346664e+01    3.098220e+00
  1.357777e+01    2.730868e+00
  1.368890e+01    2.606043e+00
  1.380003e+01    2.457289e+00
  1.391116e+01    2.400445e+00
  1.402229e+01    2.358735e+00
  1.413342e+01    2.341991e+00
  1.424455e+01    2.272763e+00
  1.435568e+01    2.265817e+00
  1.446680e+01    2.297272e+00
  1.457793e+01    2.219660e+00
  1.468906e+01    2.220652e+00
  1.480019e+01    2.173976e+00
  1.491132e+01    2.244315e+00
  1.502245e+01    2.531260e+00
  1.513358e+01    3.767190e+00
  1.524471e+01    5.724130e+00
  1.535584e+01    3.825006e+00
  1.546697e+01    2.458844e+00
  1.557809e+01    2.119640e+00
  1.568922e+01    2.026450e+00
  1.580035e+01    1.930823e+00
  1.591148e+01    1.893940e+00
  1.602261e+01    1.865662e+00
  1.613374e+01    1.848851e+00
  1.624487e+01    1.817347e+00
  1.635600e+01    1.783670e+00
  1.646713e+01    1.721782e+00
  1.657826e+01    1.724041e+00
  1.668938e+01    1.745564e+00
  1.680051e+01    1.699952e+00
  1.691164e+01    1.706978e+00
  1.702277e+01    1.651013e+00
  1.713390e+01    1.621183e+00
  1.724503e+01    1.621333e+00
  1.735616e+01    1.624285e+00
  1.746729e+01    1.587524e+00
  1.757842e+01    1.542086e+00
  1.768955e+01    1.524396e+00
  1.780067e+01    1.521245e+00
  1.791180e+01    1.509484e+00
  1.802293e+01    1.504661e+00
  1.813406e+01    1.514953e+00
  1.824519e+01    1.487697e+00
  1.835632e+01    1.470510e+00
  1.846745e+01    1.444276e+00
  1.857858e+01    1.409899e+00
  1.868971e+01    1.400886e+00
  1.880084e+01    1.400602e+00
  1.891196e+01    1.402670e+00
  1.902309e+01    1.394214e+00
  1.913422e+01    1.342744e+00
  1.924535e+01    1.383377e+00
  1.935648e+01    1.328232e+00
  1.946761e+01    1.346378e+00
  1.957874e+01    1.317190e+00
  1.968987e+01    1.297849e+00
  1.980100e+01    1.326061e+00
  1.991213e+01    1.281351e+00
  2.002325e+01    1.286356e+00
  2.013438e+01    1.276095e+00
  2.024551e+01    1.246390e+00
  2.035664e+01    1.237073e+00
  2.046777e+01    1.264522e+00
  2.057890e+01    1.209016e+00
  2.069003e+01    1.212852e+00
  2.080116e+01    1.221483e+00
  2.091229e+01    1.195038e+00
  2.102342e+01    1.197412e+00
  2.113455e+01    1.211016e+00
  2.124567e+01    1.229828e+00
  2.135680e+01    1.306166e+00
  2.146793e+01    1.338288e+00
  2.157906e+01    1.615249e+00
  2.169019e+01    2.482529e+00
  2.180132e+01    5.814409e+00
  2.191245e+01    8.796964e+00
  2.202358e+01    3.665596e+00
  2.213471e+01    1.902929e+00
  2.224584e+01    1.431045e+00
  2.235696e+01    1.242733e+00
  2.246809e+01    1.156699e+00
  2.257922e+01    1.102015e+00
  2.269035e+01    1.076040e+00
  2.280148e+01    1.062385e+00
  2.291261e+01    1.037027e+00
  2.302374e+01    1.014100e+00
  2.313487e+01    1.001606e+00
  2.324600e+01    9.841323e-01
  2.335713e+01    9.613071e-01
  2.346825e+01    9.589339e-01
  2.357938e+01    9.520020e-01
  2.369051e+01    9.603610e-01
  2.380164e+01    9.330835e-01
  2.391277e+01    8.982190e-01
  2.402390e+01    9.031128e-01
  2.413503e+01    9.042231e-01
  2.424616e+01    8.787600e-01
  2.435729e+01    8.963434e-01
  2.446842e+01    8.983915e-01
  2.457954e+01    8.963544e-01
  2.469067e+01    8.746253e-01
  2.480180e+01    9.081342e-01
  2.491293e+01    8.878284e-01
  2.502406e+01    8.964044e-01
  2.513519e+01    9.342169e-01
  2.524632e+01    9.065676e-01
  2.535745e+01    9.483693e-01
  2.546858e+01    1.013220e+00
  2.557971e+01    1.148336e+00
  2.569083e+01    1.509270e+00
  2.580196e+01    2.797256e+00
  2.591309e+01    6.278826e+00
  2.602422e+01    5.339471e+00
  2.613535e+01    2.140529e+00
  2.624648e+01    1.353364e+00
  2.635761e+01    1.134097e+00
  2.646874e+01    1.035052e+00
  2.657987e+01    9.831826e-01
  2.669100e+01    9.723421e-01
  2.680212e+01    9.612729e-01
  2.691325e+01    1.011081e+00
  2.702438e+01    1.134127e+00
  2.713551e+01    1.699445e+00
  2.724664e+01    2.076679e+00
  2.735777e+01    1.305831e+00
  2.746890e+01    1.044006e+00
  2.758003e+01    9.168141e-01
  2.769116e+01    9.083670e-01
  2.780229e+01    8.962650e-01
  2.791342e+01    8.651391e-01
  2.802454e+01    8.581223e-01
  2.813567e+01    8.646737e-01
  2.824680e+01    8.545594e-01
  2.835793e+01    8.399689e-01
  2.846906e+01    8.416951e-01
  2.858019e+01    8.215369e-01
  2.869132e+01    8.395772e-01
  2.880245e+01    8.176870e-01
  2.891358e+01    8.160307e-01
  2.902471e+01    8.339656e-01
  2.913583e+01    8.351191e-01
  2.924696e+01    8.238963e-01
  2.935809e+01    7.866482e-01
  2.946922e+01    7.812749e-01
  2.958035e+01    7.843186e-01
  2.969148e+01    7.984272e-01
  2.980261e+01    7.897413e-01
  2.991374e+01    7.850152e-01
  3.002487e+01    8.128507e-01
  3.013600e+01    8.088547e-01
  3.024712e+01    8.048720e-01
  3.035825e+01    7.794290e-01
  3.046938e+01    7.774054e-01
  3.058051e+01    7.766504e-01
  3.069164e+01    7.733948e-01
  3.080277e+01    7.723051e-01
  3.091390e+01    7.952525e-01
  3.102503e+01    7.906823e-01
  3.113616e+01    7.972387e-01
  3.124729e+01    7.902751e-01
  3.135841e+01    7.780938e-01
  3.146954e+01    8.182727e-01
  3.158067e+01    8.801083e-01
  3.169180e+01    9.998389e-01
  3.180293e+01    1.433413e+00
  3.191406e+01    2.049785e+00
  3.202519e+01    1.332488e+00
  3.213632e+01    9.245229e-01
  3.224745e+01    8.349835e-01
  3.235858e+01    7.978278e-01
  3.246970e+01    7.636176e-01
  3.254908e+01    7.602514e-01