Folder: myspot_2024_07/XRD/Reaction conditions (part 19)

File: 2024-07-27_003_Ru-CGO-ex_Reaction_dwell_000023_data_000047.dat
# == pyFAI calibration ==
# Distance Sample to Detector: 0.4 m
# PONI: 9.750e-02, 1.135e-01 m
# Rotations: -0.000175 0.000000 -0.000000 rad
#
# == Fit2d calibration ==
# Distance Sample-beamCenter: 400.000 mm
# Center: x=1514.000, y=1300.000 pix
# Tilt: 0.010 deg  TiltPlanRot: 0.010 deg
#
# Detector Detector	 Spline= None	 PixelSize= 7.500e-05, 7.500e-05 m
#    Detector has a mask: False
#    Detector has a dark current: False
#    detector has a flat field: False
#
# Wavelength: 6.888e-11 m
# Mask applied: user provided
# Dark current applied: False
# Flat field applied: False
# Polarization factor: 0.99
# Normalization factor: 1.0
# --> /home/myspot/data/2024_07_Rosario/Ru-CGO-ex/2024-07-27_003_Ru-CGO-ex_Reaction_dwell_000023_data_000047.dat
#       q_nm^-1             I
  2.003187e-02    0.000000e+00
  1.311609e-01    1.170606e-02
  2.422899e-01    3.858612e-02
  3.534189e-01    3.036433e-02
  4.645479e-01    1.883979e-02
  5.756770e-01    2.412856e-02
  6.868060e-01    8.632037e-02
  7.979350e-01    1.846297e-01
  9.090640e-01    6.123310e-01
  1.020193e+00    1.263026e+00
  1.131322e+00    1.642867e+00
  1.242451e+00    2.335457e+00
  1.353580e+00    2.676558e+00
  1.464709e+00    3.008786e+00
  1.575838e+00    3.093175e+00
  1.686967e+00    2.978369e+00
  1.798096e+00    3.132242e+00
  1.909225e+00    3.042354e+00
  2.020354e+00    3.035991e+00
  2.131483e+00    3.051798e+00
  2.242612e+00    3.175637e+00
  2.353741e+00    3.158290e+00
  2.464870e+00    3.191904e+00
  2.575999e+00    3.256060e+00
  2.687128e+00    3.163345e+00
  2.798257e+00    3.324201e+00
  2.909386e+00    3.262524e+00
  3.020515e+00    3.248362e+00
  3.131644e+00    3.382778e+00
  3.242773e+00    3.404318e+00
  3.353902e+00    3.516711e+00
  3.465031e+00    3.436804e+00
  3.576160e+00    3.439694e+00
  3.687289e+00    3.655251e+00
  3.798418e+00    3.505172e+00
  3.909547e+00    3.588565e+00
  4.020676e+00    3.551552e+00
  4.131806e+00    3.592611e+00
  4.242935e+00    3.626075e+00
  4.354064e+00    3.598329e+00
  4.465193e+00    3.627734e+00
  4.576322e+00    3.536697e+00
  4.687451e+00    3.591717e+00
  4.798580e+00    3.641637e+00
  4.909709e+00    3.610727e+00
  5.020838e+00    3.681150e+00
  5.131967e+00    3.712985e+00
  5.243096e+00    3.699720e+00
  5.354225e+00    3.628296e+00
  5.465354e+00    3.648789e+00
  5.576483e+00    3.585239e+00
  5.687612e+00    3.524765e+00
  5.798741e+00    3.468966e+00
  5.909870e+00    3.553250e+00
  6.020999e+00    3.568513e+00
  6.132128e+00    3.572132e+00
  6.243257e+00    3.629461e+00
  6.354386e+00    3.585408e+00
  6.465515e+00    3.553520e+00
  6.576644e+00    3.490576e+00
  6.687773e+00    3.546178e+00
  6.798902e+00    3.522830e+00
  6.910031e+00    3.527781e+00
  7.021160e+00    3.477772e+00
  7.132289e+00    3.553635e+00
  7.243418e+00    3.504688e+00
  7.354547e+00    3.434476e+00
  7.465676e+00    3.475904e+00
  7.576805e+00    3.548636e+00
  7.687934e+00    3.469551e+00
  7.799063e+00    3.499495e+00
  7.910192e+00    3.444614e+00
  8.021321e+00    3.406860e+00
  8.132450e+00    3.461830e+00
  8.243579e+00    3.497107e+00
  8.354708e+00    3.418893e+00
  8.465837e+00    3.377387e+00
  8.576966e+00    3.379632e+00
  8.688095e+00    3.370869e+00
  8.799224e+00    3.348796e+00
  8.910353e+00    3.285730e+00
  9.021482e+00    3.284133e+00
  9.132611e+00    3.268881e+00
  9.243740e+00    3.201011e+00
  9.354869e+00    3.198750e+00
  9.465998e+00    3.201661e+00
  9.577127e+00    3.223594e+00
  9.688256e+00    3.179411e+00
  9.799385e+00    3.101768e+00
  9.910514e+00    3.101013e+00
  1.002164e+01    3.079676e+00
  1.013277e+01    3.140288e+00
  1.024390e+01    3.043934e+00
  1.035503e+01    3.090951e+00
  1.046616e+01    3.037452e+00
  1.057729e+01    3.030473e+00
  1.068842e+01    2.928687e+00
  1.079955e+01    2.960845e+00
  1.091068e+01    2.961830e+00
  1.102180e+01    2.930093e+00
  1.113293e+01    2.914745e+00
  1.124406e+01    2.829705e+00
  1.135519e+01    2.863257e+00
  1.146632e+01    2.781871e+00
  1.157745e+01    2.792941e+00
  1.168858e+01    2.798943e+00
  1.179971e+01    2.756748e+00
  1.191084e+01    2.699092e+00
  1.202197e+01    2.744068e+00
  1.213309e+01    2.724289e+00
  1.224422e+01    2.647888e+00
  1.235535e+01    2.673364e+00
  1.246648e+01    2.687867e+00
  1.257761e+01    2.756111e+00
  1.268874e+01    2.806490e+00
  1.279987e+01    3.016022e+00
  1.291100e+01    3.638516e+00
  1.302213e+01    6.718136e+00
  1.313326e+01    1.474925e+01
  1.324438e+01    1.058769e+01
  1.335551e+01    4.498921e+00
  1.346664e+01    3.148843e+00
  1.357777e+01    2.759917e+00
  1.368890e+01    2.598389e+00
  1.380003e+01    2.496012e+00
  1.391116e+01    2.438220e+00
  1.402229e+01    2.419843e+00
  1.413342e+01    2.339833e+00
  1.424455e+01    2.294660e+00
  1.435568e+01    2.282042e+00
  1.446680e+01    2.247293e+00
  1.457793e+01    2.235218e+00
  1.468906e+01    2.206005e+00
  1.480019e+01    2.194975e+00
  1.491132e+01    2.251428e+00
  1.502245e+01    2.499568e+00
  1.513358e+01    3.760913e+00
  1.524471e+01    5.726414e+00
  1.535584e+01    3.774507e+00
  1.546697e+01    2.451802e+00
  1.557809e+01    2.083824e+00
  1.568922e+01    2.035112e+00
  1.580035e+01    1.932011e+00
  1.591148e+01    1.910181e+00
  1.602261e+01    1.840876e+00
  1.613374e+01    1.863513e+00
  1.624487e+01    1.791642e+00
  1.635600e+01    1.770813e+00
  1.646713e+01    1.766609e+00
  1.657826e+01    1.731782e+00
  1.668938e+01    1.729759e+00
  1.680051e+01    1.733587e+00
  1.691164e+01    1.694652e+00
  1.702277e+01    1.683190e+00
  1.713390e+01    1.650008e+00
  1.724503e+01    1.589769e+00
  1.735616e+01    1.626554e+00
  1.746729e+01    1.588101e+00
  1.757842e+01    1.606718e+00
  1.768955e+01    1.529601e+00
  1.780067e+01    1.528947e+00
  1.791180e+01    1.528800e+00
  1.802293e+01    1.524629e+00
  1.813406e+01    1.479516e+00
  1.824519e+01    1.494908e+00
  1.835632e+01    1.446075e+00
  1.846745e+01    1.475819e+00
  1.857858e+01    1.423996e+00
  1.868971e+01    1.424506e+00
  1.880084e+01    1.440784e+00
  1.891196e+01    1.375131e+00
  1.902309e+01    1.407793e+00
  1.913422e+01    1.370203e+00
  1.924535e+01    1.341078e+00
  1.935648e+01    1.367950e+00
  1.946761e+01    1.342199e+00
  1.957874e+01    1.283498e+00
  1.968987e+01    1.345313e+00
  1.980100e+01    1.314574e+00
  1.991213e+01    1.299667e+00
  2.002325e+01    1.284640e+00
  2.013438e+01    1.257837e+00
  2.024551e+01    1.285480e+00
  2.035664e+01    1.234682e+00
  2.046777e+01    1.246164e+00
  2.057890e+01    1.215145e+00
  2.069003e+01    1.208200e+00
  2.080116e+01    1.209124e+00
  2.091229e+01    1.235102e+00
  2.102342e+01    1.216794e+00
  2.113455e+01    1.242680e+00
  2.124567e+01    1.255798e+00
  2.135680e+01    1.298370e+00
  2.146793e+01    1.384814e+00
  2.157906e+01    1.604063e+00
  2.169019e+01    2.511775e+00
  2.180132e+01    5.825407e+00
  2.191245e+01    8.762521e+00
  2.202358e+01    3.565700e+00
  2.213471e+01    1.870215e+00
  2.224584e+01    1.450000e+00
  2.235696e+01    1.248257e+00
  2.246809e+01    1.145784e+00
  2.257922e+01    1.088583e+00
  2.269035e+01    1.092902e+00
  2.280148e+01    1.052315e+00
  2.291261e+01    1.040227e+00
  2.302374e+01    1.033671e+00
  2.313487e+01    1.001127e+00
  2.324600e+01    1.003910e+00
  2.335713e+01    9.600642e-01
  2.346825e+01    9.778871e-01
  2.357938e+01    9.582195e-01
  2.369051e+01    9.418671e-01
  2.380164e+01    9.192835e-01
  2.391277e+01    9.179893e-01
  2.402390e+01    8.949255e-01
  2.413503e+01    8.792728e-01
  2.424616e+01    8.759539e-01
  2.435729e+01    8.784606e-01
  2.446842e+01    9.166343e-01
  2.457954e+01    8.945869e-01
  2.469067e+01    8.968533e-01
  2.480180e+01    8.631988e-01
  2.491293e+01    9.007426e-01
  2.502406e+01    9.075350e-01
  2.513519e+01    9.055887e-01
  2.524632e+01    9.361229e-01
  2.535745e+01    9.836451e-01
  2.546858e+01    1.046555e+00
  2.557971e+01    1.152843e+00
  2.569083e+01    1.486174e+00
  2.580196e+01    2.818986e+00
  2.591309e+01    6.339196e+00
  2.602422e+01    5.262045e+00
  2.613535e+01    2.150778e+00
  2.624648e+01    1.333975e+00
  2.635761e+01    1.090859e+00
  2.646874e+01    1.037550e+00
  2.657987e+01    9.898485e-01
  2.669100e+01    9.657826e-01
  2.680212e+01    9.812410e-01
  2.691325e+01    9.918171e-01
  2.702438e+01    1.143231e+00
  2.713551e+01    1.762452e+00
  2.724664e+01    2.071223e+00
  2.735777e+01    1.298379e+00
  2.746890e+01    1.033707e+00
  2.758003e+01    9.261144e-01
  2.769116e+01    9.051210e-01
  2.780229e+01    8.914793e-01
  2.791342e+01    8.822342e-01
  2.802454e+01    8.896097e-01
  2.813567e+01    8.435317e-01
  2.824680e+01    8.660132e-01
  2.835793e+01    8.621779e-01
  2.846906e+01    8.616955e-01
  2.858019e+01    8.205380e-01
  2.869132e+01    8.523763e-01
  2.880245e+01    8.210581e-01
  2.891358e+01    8.254536e-01
  2.902471e+01    8.309960e-01
  2.913583e+01    8.113002e-01
  2.924696e+01    8.148049e-01
  2.935809e+01    8.128366e-01
  2.946922e+01    8.179560e-01
  2.958035e+01    7.994503e-01
  2.969148e+01    8.139669e-01
  2.980261e+01    8.038314e-01
  2.991374e+01    7.915426e-01
  3.002487e+01    8.071677e-01
  3.013600e+01    8.069144e-01
  3.024712e+01    7.952173e-01
  3.035825e+01    8.039441e-01
  3.046938e+01    7.857754e-01
  3.058051e+01    7.966939e-01
  3.069164e+01    7.944463e-01
  3.080277e+01    7.826964e-01
  3.091390e+01    7.863566e-01
  3.102503e+01    7.770870e-01
  3.113616e+01    7.933823e-01
  3.124729e+01    7.804733e-01
  3.135841e+01    7.929487e-01
  3.146954e+01    7.974611e-01
  3.158067e+01    8.700778e-01
  3.169180e+01    9.829850e-01
  3.180293e+01    1.454238e+00
  3.191406e+01    2.051541e+00
  3.202519e+01    1.332470e+00
  3.213632e+01    9.454390e-01
  3.224745e+01    8.298426e-01
  3.235858e+01    8.130551e-01
  3.246970e+01    7.761191e-01
  3.254908e+01    7.948003e-01

File: 2024-07-27_003_Ru-CGO-ex_Reaction_dwell_000023_data_000049.dat
# == pyFAI calibration ==
# Distance Sample to Detector: 0.4 m
# PONI: 9.750e-02, 1.135e-01 m
# Rotations: -0.000175 0.000000 -0.000000 rad
#
# == Fit2d calibration ==
# Distance Sample-beamCenter: 400.000 mm
# Center: x=1514.000, y=1300.000 pix
# Tilt: 0.010 deg  TiltPlanRot: 0.010 deg
#
# Detector Detector	 Spline= None	 PixelSize= 7.500e-05, 7.500e-05 m
#    Detector has a mask: False
#    Detector has a dark current: False
#    detector has a flat field: False
#
# Wavelength: 6.888e-11 m
# Mask applied: user provided
# Dark current applied: False
# Flat field applied: False
# Polarization factor: 0.99
# Normalization factor: 1.0
# --> /home/myspot/data/2024_07_Rosario/Ru-CGO-ex/2024-07-27_003_Ru-CGO-ex_Reaction_dwell_000023_data_000049.dat
#       q_nm^-1             I
  2.003187e-02    0.000000e+00
  1.311609e-01    5.076800e-02
  2.422899e-01    4.236707e-02
  3.534189e-01    5.323296e-02
  4.645479e-01    5.408330e-02
  5.756770e-01    3.825407e-02
  6.868060e-01    4.332586e-02
  7.979350e-01    1.714771e-01
  9.090640e-01    6.274291e-01
  1.020193e+00    1.261742e+00
  1.131322e+00    1.618458e+00
  1.242451e+00    2.367623e+00
  1.353580e+00    2.750916e+00
  1.464709e+00    3.008387e+00
  1.575838e+00    3.185840e+00
  1.686967e+00    3.099093e+00
  1.798096e+00    3.008143e+00
  1.909225e+00    3.111284e+00
  2.020354e+00    3.118384e+00
  2.131483e+00    3.152659e+00
  2.242612e+00    3.058796e+00
  2.353741e+00    3.115473e+00
  2.464870e+00    3.216063e+00
  2.575999e+00    3.162493e+00
  2.687128e+00    3.213355e+00
  2.798257e+00    3.265900e+00
  2.909386e+00    3.253889e+00
  3.020515e+00    3.411706e+00
  3.131644e+00    3.425030e+00
  3.242773e+00    3.366404e+00
  3.353902e+00    3.389159e+00
  3.465031e+00    3.511875e+00
  3.576160e+00    3.545308e+00
  3.687289e+00    3.443236e+00
  3.798418e+00    3.473408e+00
  3.909547e+00    3.523844e+00
  4.020676e+00    3.519422e+00
  4.131806e+00    3.603157e+00
  4.242935e+00    3.525633e+00
  4.354064e+00    3.571936e+00
  4.465193e+00    3.622027e+00
  4.576322e+00    3.560477e+00
  4.687451e+00    3.581593e+00
  4.798580e+00    3.663618e+00
  4.909709e+00    3.772565e+00
  5.020838e+00    3.671671e+00
  5.131967e+00    3.649019e+00
  5.243096e+00    3.597487e+00
  5.354225e+00    3.665471e+00
  5.465354e+00    3.562061e+00
  5.576483e+00    3.612429e+00
  5.687612e+00    3.610630e+00
  5.798741e+00    3.623902e+00
  5.909870e+00    3.593222e+00
  6.020999e+00    3.501955e+00
  6.132128e+00    3.619735e+00
  6.243257e+00    3.509160e+00
  6.354386e+00    3.535227e+00
  6.465515e+00    3.549835e+00
  6.576644e+00    3.560136e+00
  6.687773e+00    3.602630e+00
  6.798902e+00    3.577119e+00
  6.910031e+00    3.487629e+00
  7.021160e+00    3.553588e+00
  7.132289e+00    3.555235e+00
  7.243418e+00    3.577892e+00
  7.354547e+00    3.491512e+00
  7.465676e+00    3.544163e+00
  7.576805e+00    3.464891e+00
  7.687934e+00    3.502324e+00
  7.799063e+00    3.439425e+00
  7.910192e+00    3.414725e+00
  8.021321e+00    3.404671e+00
  8.132450e+00    3.439124e+00
  8.243579e+00    3.473993e+00
  8.354708e+00    3.375857e+00
  8.465837e+00    3.409100e+00
  8.576966e+00    3.344925e+00
  8.688095e+00    3.272007e+00
  8.799224e+00    3.245536e+00
  8.910353e+00    3.317378e+00
  9.021482e+00    3.242423e+00
  9.132611e+00    3.272747e+00
  9.243740e+00    3.238570e+00
  9.354869e+00    3.214774e+00
  9.465998e+00    3.199682e+00
  9.577127e+00    3.159927e+00
  9.688256e+00    3.186787e+00
  9.799385e+00    3.143376e+00
  9.910514e+00    3.201656e+00
  1.002164e+01    3.185778e+00
  1.013277e+01    3.116635e+00
  1.024390e+01    3.117115e+00
  1.035503e+01    3.065169e+00
  1.046616e+01    3.054146e+00
  1.057729e+01    2.953403e+00
  1.068842e+01    2.998043e+00
  1.079955e+01    2.931453e+00
  1.091068e+01    2.914360e+00
  1.102180e+01    2.903376e+00
  1.113293e+01    2.892869e+00
  1.124406e+01    2.883392e+00
  1.135519e+01    2.767329e+00
  1.146632e+01    2.805125e+00
  1.157745e+01    2.811233e+00
  1.168858e+01    2.746398e+00
  1.179971e+01    2.762187e+00
  1.191084e+01    2.745549e+00
  1.202197e+01    2.706570e+00
  1.213309e+01    2.722050e+00
  1.224422e+01    2.724570e+00
  1.235535e+01    2.694772e+00
  1.246648e+01    2.686198e+00
  1.257761e+01    2.719485e+00
  1.268874e+01    2.832340e+00
  1.279987e+01    2.983521e+00
  1.291100e+01    3.688978e+00
  1.302213e+01    6.666465e+00
  1.313326e+01    1.473934e+01
  1.324438e+01    1.067003e+01
  1.335551e+01    4.439256e+00
  1.346664e+01    3.143632e+00
  1.357777e+01    2.720957e+00
  1.368890e+01    2.552448e+00
  1.380003e+01    2.453124e+00
  1.391116e+01    2.370911e+00
  1.402229e+01    2.360947e+00
  1.413342e+01    2.342660e+00
  1.424455e+01    2.306497e+00
  1.435568e+01    2.257644e+00
  1.446680e+01    2.237932e+00
  1.457793e+01    2.204590e+00
  1.468906e+01    2.191420e+00
  1.480019e+01    2.214608e+00
  1.491132e+01    2.261434e+00
  1.502245e+01    2.497230e+00
  1.513358e+01    3.799723e+00
  1.524471e+01    5.740316e+00
  1.535584e+01    3.769905e+00
  1.546697e+01    2.449156e+00
  1.557809e+01    2.147776e+00
  1.568922e+01    1.994748e+00
  1.580035e+01    1.973653e+00
  1.591148e+01    1.892413e+00
  1.602261e+01    1.871047e+00
  1.613374e+01    1.871535e+00
  1.624487e+01    1.856094e+00
  1.635600e+01    1.835115e+00
  1.646713e+01    1.786781e+00
  1.657826e+01    1.731408e+00
  1.668938e+01    1.738906e+00
  1.680051e+01    1.704953e+00
  1.691164e+01    1.665284e+00
  1.702277e+01    1.634859e+00
  1.713390e+01    1.637224e+00
  1.724503e+01    1.638618e+00
  1.735616e+01    1.589005e+00
  1.746729e+01    1.593663e+00
  1.757842e+01    1.554195e+00
  1.768955e+01    1.560833e+00
  1.780067e+01    1.539685e+00
  1.791180e+01    1.544370e+00
  1.802293e+01    1.521734e+00
  1.813406e+01    1.492547e+00
  1.824519e+01    1.475519e+00
  1.835632e+01    1.473316e+00
  1.846745e+01    1.420296e+00
  1.857858e+01    1.428154e+00
  1.868971e+01    1.430149e+00
  1.880084e+01    1.397147e+00
  1.891196e+01    1.388383e+00
  1.902309e+01    1.380938e+00
  1.913422e+01    1.357569e+00
  1.924535e+01    1.354347e+00
  1.935648e+01    1.389667e+00
  1.946761e+01    1.373830e+00
  1.957874e+01    1.321125e+00
  1.968987e+01    1.311783e+00
  1.980100e+01    1.271811e+00
  1.991213e+01    1.265468e+00
  2.002325e+01    1.318131e+00
  2.013438e+01    1.288580e+00
  2.024551e+01    1.252231e+00
  2.035664e+01    1.240439e+00
  2.046777e+01    1.262984e+00
  2.057890e+01    1.264561e+00
  2.069003e+01    1.241222e+00
  2.080116e+01    1.229441e+00
  2.091229e+01    1.236785e+00
  2.102342e+01    1.220896e+00
  2.113455e+01    1.221756e+00
  2.124567e+01    1.236883e+00
  2.135680e+01    1.264527e+00
  2.146793e+01    1.385868e+00
  2.157906e+01    1.590915e+00
  2.169019e+01    2.528549e+00
  2.180132e+01    5.850866e+00
  2.191245e+01    8.825388e+00
  2.202358e+01    3.636005e+00
  2.213471e+01    1.901984e+00
  2.224584e+01    1.440542e+00
  2.235696e+01    1.232261e+00
  2.246809e+01    1.158808e+00
  2.257922e+01    1.142273e+00
  2.269035e+01    1.090502e+00
  2.280148e+01    1.086283e+00
  2.291261e+01    1.016362e+00
  2.302374e+01    1.036974e+00
  2.313487e+01    9.908217e-01
  2.324600e+01    1.001723e+00
  2.335713e+01    9.856066e-01
  2.346825e+01    9.699699e-01
  2.357938e+01    9.797414e-01
  2.369051e+01    9.573556e-01
  2.380164e+01    9.280946e-01
  2.391277e+01    9.101952e-01
  2.402390e+01    8.957589e-01
  2.413503e+01    8.854640e-01
  2.424616e+01    8.898798e-01
  2.435729e+01    8.891662e-01
  2.446842e+01    8.945109e-01
  2.457954e+01    8.924600e-01
  2.469067e+01    8.873363e-01
  2.480180e+01    9.003332e-01
  2.491293e+01    8.850846e-01
  2.502406e+01    9.148173e-01
  2.513519e+01    9.018552e-01
  2.524632e+01    9.298957e-01
  2.535745e+01    9.834093e-01
  2.546858e+01    1.024696e+00
  2.557971e+01    1.144867e+00
  2.569083e+01    1.474817e+00
  2.580196e+01    2.779624e+00
  2.591309e+01    6.287780e+00
  2.602422e+01    5.310999e+00
  2.613535e+01    2.160124e+00
  2.624648e+01    1.326301e+00
  2.635761e+01    1.103861e+00
  2.646874e+01    1.028336e+00
  2.657987e+01    9.943190e-01
  2.669100e+01    9.894212e-01
  2.680212e+01    9.548389e-01
  2.691325e+01    9.997777e-01
  2.702438e+01    1.143704e+00
  2.713551e+01    1.720538e+00
  2.724664e+01    2.075627e+00
  2.735777e+01    1.276350e+00
  2.746890e+01    1.039940e+00
  2.758003e+01    9.512456e-01
  2.769116e+01    9.032989e-01
  2.780229e+01    8.841343e-01
  2.791342e+01    8.603486e-01
  2.802454e+01    8.760048e-01
  2.813567e+01    8.763621e-01
  2.824680e+01    8.642855e-01
  2.835793e+01    8.495590e-01
  2.846906e+01    8.536037e-01
  2.858019e+01    8.475701e-01
  2.869132e+01    8.384923e-01
  2.880245e+01    8.192875e-01
  2.891358e+01    8.087528e-01
  2.902471e+01    8.010678e-01
  2.913583e+01    8.337990e-01
  2.924696e+01    8.211169e-01
  2.935809e+01    7.926333e-01
  2.946922e+01    7.924473e-01
  2.958035e+01    7.927125e-01
  2.969148e+01    7.963149e-01
  2.980261e+01    7.955971e-01
  2.991374e+01    7.936102e-01
  3.002487e+01    8.062954e-01
  3.013600e+01    7.869706e-01
  3.024712e+01    8.034257e-01
  3.035825e+01    7.923729e-01
  3.046938e+01    7.510341e-01
  3.058051e+01    8.033110e-01
  3.069164e+01    7.842993e-01
  3.080277e+01    7.800029e-01
  3.091390e+01    7.857779e-01
  3.102503e+01    7.717548e-01
  3.113616e+01    7.769545e-01
  3.124729e+01    7.989674e-01
  3.135841e+01    8.019448e-01
  3.146954e+01    8.331913e-01
  3.158067e+01    8.592977e-01
  3.169180e+01    1.005303e+00
  3.180293e+01    1.439506e+00
  3.191406e+01    2.065026e+00
  3.202519e+01    1.338373e+00
  3.213632e+01    9.442527e-01
  3.224745e+01    8.371612e-01
  3.235858e+01    8.199729e-01
  3.246970e+01    8.053778e-01
  3.254908e+01    7.884020e-01