Folder: myspot_2024_07/XRD/Reaction conditions (part 75)

File: 2024-07-27_003_Ru-CGO-ex_Reaction_dwell_000023_data_000183.dat
# == pyFAI calibration ==
# Distance Sample to Detector: 0.4 m
# PONI: 9.750e-02, 1.135e-01 m
# Rotations: -0.000175 0.000000 -0.000000 rad
#
# == Fit2d calibration ==
# Distance Sample-beamCenter: 400.000 mm
# Center: x=1514.000, y=1300.000 pix
# Tilt: 0.010 deg  TiltPlanRot: 0.010 deg
#
# Detector Detector	 Spline= None	 PixelSize= 7.500e-05, 7.500e-05 m
#    Detector has a mask: False
#    Detector has a dark current: False
#    detector has a flat field: False
#
# Wavelength: 6.888e-11 m
# Mask applied: user provided
# Dark current applied: False
# Flat field applied: False
# Polarization factor: 0.99
# Normalization factor: 1.0
# --> /home/myspot/data/2024_07_Rosario/Ru-CGO-ex/2024-07-27_003_Ru-CGO-ex_Reaction_dwell_000023_data_000183.dat
#       q_nm^-1             I
  2.003187e-02    7.712225e-02
  1.311609e-01    5.025806e-02
  2.422899e-01    1.091688e-02
  3.534189e-01    5.907043e-02
  4.645479e-01    3.369385e-02
  5.756770e-01    2.592667e-02
  6.868060e-01    3.115404e-02
  7.979350e-01    1.200956e-01
  9.090640e-01    5.024935e-01
  1.020193e+00    1.176312e+00
  1.131322e+00    1.480358e+00
  1.242451e+00    2.328005e+00
  1.353580e+00    2.553319e+00
  1.464709e+00    2.987962e+00
  1.575838e+00    3.207451e+00
  1.686967e+00    2.962040e+00
  1.798096e+00    2.975970e+00
  1.909225e+00    2.969356e+00
  2.020354e+00    2.973495e+00
  2.131483e+00    3.053201e+00
  2.242612e+00    3.025000e+00
  2.353741e+00    3.180312e+00
  2.464870e+00    3.083341e+00
  2.575999e+00    3.157765e+00
  2.687128e+00    3.184157e+00
  2.798257e+00    3.232411e+00
  2.909386e+00    3.138908e+00
  3.020515e+00    3.255054e+00
  3.131644e+00    3.331298e+00
  3.242773e+00    3.496586e+00
  3.353902e+00    3.340717e+00
  3.465031e+00    3.415210e+00
  3.576160e+00    3.397248e+00
  3.687289e+00    3.531465e+00
  3.798418e+00    3.328626e+00
  3.909547e+00    3.456028e+00
  4.020676e+00    3.480904e+00
  4.131806e+00    3.458635e+00
  4.242935e+00    3.490471e+00
  4.354064e+00    3.570709e+00
  4.465193e+00    3.543931e+00
  4.576322e+00    3.558316e+00
  4.687451e+00    3.564564e+00
  4.798580e+00    3.588821e+00
  4.909709e+00    3.528197e+00
  5.020838e+00    3.493550e+00
  5.131967e+00    3.544485e+00
  5.243096e+00    3.659014e+00
  5.354225e+00    3.531544e+00
  5.465354e+00    3.638688e+00
  5.576483e+00    3.591755e+00
  5.687612e+00    3.570781e+00
  5.798741e+00    3.521545e+00
  5.909870e+00    3.484177e+00
  6.020999e+00    3.432494e+00
  6.132128e+00    3.489268e+00
  6.243257e+00    3.529771e+00
  6.354386e+00    3.556563e+00
  6.465515e+00    3.521192e+00
  6.576644e+00    3.602660e+00
  6.687773e+00    3.545356e+00
  6.798902e+00    3.429696e+00
  6.910031e+00    3.548085e+00
  7.021160e+00    3.420065e+00
  7.132289e+00    3.549639e+00
  7.243418e+00    3.471062e+00
  7.354547e+00    3.442128e+00
  7.465676e+00    3.450200e+00
  7.576805e+00    3.395593e+00
  7.687934e+00    3.482191e+00
  7.799063e+00    3.342127e+00
  7.910192e+00    3.345766e+00
  8.021321e+00    3.340143e+00
  8.132450e+00    3.382983e+00
  8.243579e+00    3.374256e+00
  8.354708e+00    3.348908e+00
  8.465837e+00    3.304744e+00
  8.576966e+00    3.316255e+00
  8.688095e+00    3.307429e+00
  8.799224e+00    3.259800e+00
  8.910353e+00    3.270122e+00
  9.021482e+00    3.212609e+00
  9.132611e+00    3.180580e+00
  9.243740e+00    3.203787e+00
  9.354869e+00    3.227865e+00
  9.465998e+00    3.243714e+00
  9.577127e+00    3.134168e+00
  9.688256e+00    3.124160e+00
  9.799385e+00    3.131201e+00
  9.910514e+00    3.152867e+00
  1.002164e+01    3.036350e+00
  1.013277e+01    3.115303e+00
  1.024390e+01    3.031618e+00
  1.035503e+01    3.018637e+00
  1.046616e+01    3.001177e+00
  1.057729e+01    2.980598e+00
  1.068842e+01    2.939728e+00
  1.079955e+01    2.899733e+00
  1.091068e+01    2.895487e+00
  1.102180e+01    2.857265e+00
  1.113293e+01    2.858800e+00
  1.124406e+01    2.830287e+00
  1.135519e+01    2.786003e+00
  1.146632e+01    2.797578e+00
  1.157745e+01    2.751180e+00
  1.168858e+01    2.706139e+00
  1.179971e+01    2.712620e+00
  1.191084e+01    2.710819e+00
  1.202197e+01    2.687477e+00
  1.213309e+01    2.693531e+00
  1.224422e+01    2.664971e+00
  1.235535e+01    2.625161e+00
  1.246648e+01    2.685699e+00
  1.257761e+01    2.677173e+00
  1.268874e+01    2.817609e+00
  1.279987e+01    2.914105e+00
  1.291100e+01    3.550706e+00
  1.302213e+01    6.556442e+00
  1.313326e+01    1.452329e+01
  1.324438e+01    1.057507e+01
  1.335551e+01    4.383945e+00
  1.346664e+01    3.063142e+00
  1.357777e+01    2.701195e+00
  1.368890e+01    2.551795e+00
  1.380003e+01    2.491367e+00
  1.391116e+01    2.385362e+00
  1.402229e+01    2.331012e+00
  1.413342e+01    2.276673e+00
  1.424455e+01    2.237397e+00
  1.435568e+01    2.243284e+00
  1.446680e+01    2.192255e+00
  1.457793e+01    2.185350e+00
  1.468906e+01    2.178588e+00
  1.480019e+01    2.202336e+00
  1.491132e+01    2.232054e+00
  1.502245e+01    2.461283e+00
  1.513358e+01    3.717571e+00
  1.524471e+01    5.685905e+00
  1.535584e+01    3.787007e+00
  1.546697e+01    2.377620e+00
  1.557809e+01    2.109704e+00
  1.568922e+01    2.028869e+00
  1.580035e+01    1.949508e+00
  1.591148e+01    1.869217e+00
  1.602261e+01    1.827016e+00
  1.613374e+01    1.829178e+00
  1.624487e+01    1.798562e+00
  1.635600e+01    1.756925e+00
  1.646713e+01    1.741016e+00
  1.657826e+01    1.741868e+00
  1.668938e+01    1.692802e+00
  1.680051e+01    1.674772e+00
  1.691164e+01    1.622885e+00
  1.702277e+01    1.624776e+00
  1.713390e+01    1.614388e+00
  1.724503e+01    1.580523e+00
  1.735616e+01    1.589959e+00
  1.746729e+01    1.565949e+00
  1.757842e+01    1.549050e+00
  1.768955e+01    1.515327e+00
  1.780067e+01    1.499245e+00
  1.791180e+01    1.511193e+00
  1.802293e+01    1.481017e+00
  1.813406e+01    1.488107e+00
  1.824519e+01    1.469472e+00
  1.835632e+01    1.431391e+00
  1.846745e+01    1.424503e+00
  1.857858e+01    1.424768e+00
  1.868971e+01    1.430991e+00
  1.880084e+01    1.383899e+00
  1.891196e+01    1.380025e+00
  1.902309e+01    1.350433e+00
  1.913422e+01    1.370011e+00
  1.924535e+01    1.336462e+00
  1.935648e+01    1.322057e+00
  1.946761e+01    1.319332e+00
  1.957874e+01    1.325528e+00
  1.968987e+01    1.301885e+00
  1.980100e+01    1.260821e+00
  1.991213e+01    1.259689e+00
  2.002325e+01    1.275350e+00
  2.013438e+01    1.267741e+00
  2.024551e+01    1.206493e+00
  2.035664e+01    1.233647e+00
  2.046777e+01    1.232399e+00
  2.057890e+01    1.199854e+00
  2.069003e+01    1.199576e+00
  2.080116e+01    1.217021e+00
  2.091229e+01    1.209997e+00
  2.102342e+01    1.226319e+00
  2.113455e+01    1.209327e+00
  2.124567e+01    1.241495e+00
  2.135680e+01    1.292015e+00
  2.146793e+01    1.376660e+00
  2.157906e+01    1.589209e+00
  2.169019e+01    2.449269e+00
  2.180132e+01    5.712004e+00
  2.191245e+01    8.711173e+00
  2.202358e+01    3.637708e+00
  2.213471e+01    1.855376e+00
  2.224584e+01    1.375057e+00
  2.235696e+01    1.223241e+00
  2.246809e+01    1.144763e+00
  2.257922e+01    1.085141e+00
  2.269035e+01    1.066794e+00
  2.280148e+01    1.056266e+00
  2.291261e+01    1.039184e+00
  2.302374e+01    1.000431e+00
  2.313487e+01    9.892943e-01
  2.324600e+01    9.690748e-01
  2.335713e+01    9.602603e-01
  2.346825e+01    9.731813e-01
  2.357938e+01    9.492714e-01
  2.369051e+01    9.404159e-01
  2.380164e+01    9.198145e-01
  2.391277e+01    9.063982e-01
  2.402390e+01    8.858847e-01
  2.413503e+01    8.806130e-01
  2.424616e+01    8.603173e-01
  2.435729e+01    8.940196e-01
  2.446842e+01    8.911013e-01
  2.457954e+01    8.608247e-01
  2.469067e+01    8.903151e-01
  2.480180e+01    8.644207e-01
  2.491293e+01    8.759923e-01
  2.502406e+01    8.485928e-01
  2.513519e+01    8.849379e-01
  2.524632e+01    9.218215e-01
  2.535745e+01    9.441466e-01
  2.546858e+01    1.021348e+00
  2.557971e+01    1.136631e+00
  2.569083e+01    1.471845e+00
  2.580196e+01    2.753860e+00
  2.591309e+01    6.201167e+00
  2.602422e+01    5.276842e+00
  2.613535e+01    2.140728e+00
  2.624648e+01    1.307441e+00
  2.635761e+01    1.104022e+00
  2.646874e+01    1.030726e+00
  2.657987e+01    9.770912e-01
  2.669100e+01    9.449969e-01
  2.680212e+01    9.539223e-01
  2.691325e+01    9.828198e-01
  2.702438e+01    1.123008e+00
  2.713551e+01    1.679974e+00
  2.724664e+01    2.051950e+00
  2.735777e+01    1.270763e+00
  2.746890e+01    9.833909e-01
  2.758003e+01    9.259763e-01
  2.769116e+01    8.747130e-01
  2.780229e+01    8.745533e-01
  2.791342e+01    8.541114e-01
  2.802454e+01    8.440374e-01
  2.813567e+01    8.475055e-01
  2.824680e+01    8.365131e-01
  2.835793e+01    8.273447e-01
  2.846906e+01    8.137688e-01
  2.858019e+01    8.335366e-01
  2.869132e+01    8.353325e-01
  2.880245e+01    8.198438e-01
  2.891358e+01    8.117628e-01
  2.902471e+01    8.149959e-01
  2.913583e+01    8.045311e-01
  2.924696e+01    7.909410e-01
  2.935809e+01    8.067821e-01
  2.946922e+01    8.051715e-01
  2.958035e+01    7.933336e-01
  2.969148e+01    7.992295e-01
  2.980261e+01    7.695100e-01
  2.991374e+01    7.897188e-01
  3.002487e+01    7.887267e-01
  3.013600e+01    7.741636e-01
  3.024712e+01    7.501748e-01
  3.035825e+01    7.605644e-01
  3.046938e+01    7.618735e-01
  3.058051e+01    7.832884e-01
  3.069164e+01    7.828174e-01
  3.080277e+01    7.619546e-01
  3.091390e+01    8.039309e-01
  3.102503e+01    7.877389e-01
  3.113616e+01    7.913049e-01
  3.124729e+01    7.870378e-01
  3.135841e+01    7.833303e-01
  3.146954e+01    8.153464e-01
  3.158067e+01    8.589616e-01
  3.169180e+01    9.754423e-01
  3.180293e+01    1.435999e+00
  3.191406e+01    2.040457e+00
  3.202519e+01    1.310197e+00
  3.213632e+01    9.145575e-01
  3.224745e+01    8.185136e-01
  3.235858e+01    7.938870e-01
  3.246970e+01    7.778810e-01
  3.254908e+01    7.587222e-01

File: 2024-07-27_003_Ru-CGO-ex_Reaction_dwell_000023_data_000184.dat
# == pyFAI calibration ==
# Distance Sample to Detector: 0.4 m
# PONI: 9.750e-02, 1.135e-01 m
# Rotations: -0.000175 0.000000 -0.000000 rad
#
# == Fit2d calibration ==
# Distance Sample-beamCenter: 400.000 mm
# Center: x=1514.000, y=1300.000 pix
# Tilt: 0.010 deg  TiltPlanRot: 0.010 deg
#
# Detector Detector	 Spline= None	 PixelSize= 7.500e-05, 7.500e-05 m
#    Detector has a mask: False
#    Detector has a dark current: False
#    detector has a flat field: False
#
# Wavelength: 6.888e-11 m
# Mask applied: user provided
# Dark current applied: False
# Flat field applied: False
# Polarization factor: 0.99
# Normalization factor: 1.0
# --> /home/myspot/data/2024_07_Rosario/Ru-CGO-ex/2024-07-27_003_Ru-CGO-ex_Reaction_dwell_000023_data_000184.dat
#       q_nm^-1             I
  2.003187e-02    0.000000e+00
  1.311609e-01    6.323750e-03
  2.422899e-01    4.647994e-02
  3.534189e-01    4.602027e-02
  4.645479e-01    3.650566e-02
  5.756770e-01    2.571194e-02
  6.868060e-01    3.561966e-02
  7.979350e-01    1.580586e-01
  9.090640e-01    6.976254e-01
  1.020193e+00    1.347908e+00
  1.131322e+00    1.394088e+00
  1.242451e+00    2.392722e+00
  1.353580e+00    2.835362e+00
  1.464709e+00    3.194133e+00
  1.575838e+00    3.109670e+00
  1.686967e+00    3.016108e+00
  1.798096e+00    3.013426e+00
  1.909225e+00    2.978696e+00
  2.020354e+00    3.119776e+00
  2.131483e+00    3.024463e+00
  2.242612e+00    3.063957e+00
  2.353741e+00    2.975580e+00
  2.464870e+00    3.253577e+00
  2.575999e+00    2.913045e+00
  2.687128e+00    3.157808e+00
  2.798257e+00    3.258650e+00
  2.909386e+00    3.328460e+00
  3.020515e+00    3.297745e+00
  3.131644e+00    3.341544e+00
  3.242773e+00    3.402621e+00
  3.353902e+00    3.427467e+00
  3.465031e+00    3.429226e+00
  3.576160e+00    3.454582e+00
  3.687289e+00    3.413246e+00
  3.798418e+00    3.466808e+00
  3.909547e+00    3.406521e+00
  4.020676e+00    3.519584e+00
  4.131806e+00    3.453065e+00
  4.242935e+00    3.490114e+00
  4.354064e+00    3.586678e+00
  4.465193e+00    3.457463e+00
  4.576322e+00    3.530498e+00
  4.687451e+00    3.611445e+00
  4.798580e+00    3.564529e+00
  4.909709e+00    3.600887e+00
  5.020838e+00    3.621252e+00
  5.131967e+00    3.683248e+00
  5.243096e+00    3.646511e+00
  5.354225e+00    3.724537e+00
  5.465354e+00    3.588222e+00
  5.576483e+00    3.674239e+00
  5.687612e+00    3.520101e+00
  5.798741e+00    3.565092e+00
  5.909870e+00    3.527408e+00
  6.020999e+00    3.395582e+00
  6.132128e+00    3.550860e+00
  6.243257e+00    3.555174e+00
  6.354386e+00    3.460586e+00
  6.465515e+00    3.596319e+00
  6.576644e+00    3.538280e+00
  6.687773e+00    3.499607e+00
  6.798902e+00    3.491776e+00
  6.910031e+00    3.524246e+00
  7.021160e+00    3.599061e+00
  7.132289e+00    3.435521e+00
  7.243418e+00    3.439987e+00
  7.354547e+00    3.452050e+00
  7.465676e+00    3.487227e+00
  7.576805e+00    3.394583e+00
  7.687934e+00    3.416968e+00
  7.799063e+00    3.403373e+00
  7.910192e+00    3.337588e+00
  8.021321e+00    3.347986e+00
  8.132450e+00    3.353112e+00
  8.243579e+00    3.417852e+00
  8.354708e+00    3.302595e+00
  8.465837e+00    3.347460e+00
  8.576966e+00    3.296439e+00
  8.688095e+00    3.305220e+00
  8.799224e+00    3.250526e+00
  8.910353e+00    3.235412e+00
  9.021482e+00    3.276328e+00
  9.132611e+00    3.245866e+00
  9.243740e+00    3.197687e+00
  9.354869e+00    3.177830e+00
  9.465998e+00    3.183867e+00
  9.577127e+00    3.209716e+00
  9.688256e+00    3.102431e+00
  9.799385e+00    3.129648e+00
  9.910514e+00    3.071217e+00
  1.002164e+01    3.062124e+00
  1.013277e+01    3.057469e+00
  1.024390e+01    3.046155e+00
  1.035503e+01    2.985206e+00
  1.046616e+01    2.988327e+00
  1.057729e+01    2.999640e+00
  1.068842e+01    2.945347e+00
  1.079955e+01    2.876353e+00
  1.091068e+01    2.860450e+00
  1.102180e+01    2.843409e+00
  1.113293e+01    2.861233e+00
  1.124406e+01    2.800498e+00
  1.135519e+01    2.776408e+00
  1.146632e+01    2.768336e+00
  1.157745e+01    2.728496e+00
  1.168858e+01    2.718325e+00
  1.179971e+01    2.720606e+00
  1.191084e+01    2.701322e+00
  1.202197e+01    2.677199e+00
  1.213309e+01    2.677200e+00
  1.224422e+01    2.650956e+00
  1.235535e+01    2.601700e+00
  1.246648e+01    2.682377e+00
  1.257761e+01    2.672389e+00
  1.268874e+01    2.789598e+00
  1.279987e+01    2.951439e+00
  1.291100e+01    3.565345e+00
  1.302213e+01    6.567206e+00
  1.313326e+01    1.458121e+01
  1.324438e+01    1.062092e+01
  1.335551e+01    4.325383e+00
  1.346664e+01    3.083882e+00
  1.357777e+01    2.730755e+00
  1.368890e+01    2.516893e+00
  1.380003e+01    2.419939e+00
  1.391116e+01    2.333341e+00
  1.402229e+01    2.317998e+00
  1.413342e+01    2.287201e+00
  1.424455e+01    2.260805e+00
  1.435568e+01    2.232355e+00
  1.446680e+01    2.203758e+00
  1.457793e+01    2.181733e+00
  1.468906e+01    2.191078e+00
  1.480019e+01    2.156883e+00
  1.491132e+01    2.251523e+00
  1.502245e+01    2.500904e+00
  1.513358e+01    3.681131e+00
  1.524471e+01    5.656006e+00
  1.535584e+01    3.728834e+00
  1.546697e+01    2.416364e+00
  1.557809e+01    2.118771e+00
  1.568922e+01    1.970958e+00
  1.580035e+01    1.884040e+00
  1.591148e+01    1.852050e+00
  1.602261e+01    1.839193e+00
  1.613374e+01    1.792866e+00
  1.624487e+01    1.823598e+00
  1.635600e+01    1.741837e+00
  1.646713e+01    1.726581e+00
  1.657826e+01    1.734208e+00
  1.668938e+01    1.698548e+00
  1.680051e+01    1.688621e+00
  1.691164e+01    1.674101e+00
  1.702277e+01    1.643097e+00
  1.713390e+01    1.655902e+00
  1.724503e+01    1.588482e+00
  1.735616e+01    1.570705e+00
  1.746729e+01    1.559482e+00
  1.757842e+01    1.562268e+00
  1.768955e+01    1.512913e+00
  1.780067e+01    1.505585e+00
  1.791180e+01    1.491168e+00
  1.802293e+01    1.493993e+00
  1.813406e+01    1.475291e+00
  1.824519e+01    1.471745e+00
  1.835632e+01    1.446273e+00
  1.846745e+01    1.405632e+00
  1.857858e+01    1.420053e+00
  1.868971e+01    1.385996e+00
  1.880084e+01    1.371888e+00
  1.891196e+01    1.376787e+00
  1.902309e+01    1.370352e+00
  1.913422e+01    1.370705e+00
  1.924535e+01    1.315726e+00
  1.935648e+01    1.368399e+00
  1.946761e+01    1.338249e+00
  1.957874e+01    1.296545e+00
  1.968987e+01    1.256467e+00
  1.980100e+01    1.295141e+00
  1.991213e+01    1.279440e+00
  2.002325e+01    1.231658e+00
  2.013438e+01    1.234759e+00
  2.024551e+01    1.245035e+00
  2.035664e+01    1.230323e+00
  2.046777e+01    1.219409e+00
  2.057890e+01    1.210484e+00
  2.069003e+01    1.244436e+00
  2.080116e+01    1.190842e+00
  2.091229e+01    1.202566e+00
  2.102342e+01    1.211220e+00
  2.113455e+01    1.195420e+00
  2.124567e+01    1.216683e+00
  2.135680e+01    1.270560e+00
  2.146793e+01    1.338119e+00
  2.157906e+01    1.617520e+00
  2.169019e+01    2.442772e+00
  2.180132e+01    5.742710e+00
  2.191245e+01    8.568834e+00
  2.202358e+01    3.565762e+00
  2.213471e+01    1.880337e+00
  2.224584e+01    1.394243e+00
  2.235696e+01    1.220739e+00
  2.246809e+01    1.188628e+00
  2.257922e+01    1.110368e+00
  2.269035e+01    1.067425e+00
  2.280148e+01    1.040403e+00
  2.291261e+01    1.025752e+00
  2.302374e+01    9.887308e-01
  2.313487e+01    1.005697e+00
  2.324600e+01    9.786360e-01
  2.335713e+01    9.721775e-01
  2.346825e+01    9.663870e-01
  2.357938e+01    9.224072e-01
  2.369051e+01    9.173917e-01
  2.380164e+01    9.158500e-01
  2.391277e+01    9.094892e-01
  2.402390e+01    8.833424e-01
  2.413503e+01    8.587588e-01
  2.424616e+01    8.816035e-01
  2.435729e+01    8.859279e-01
  2.446842e+01    8.666956e-01
  2.457954e+01    8.779734e-01
  2.469067e+01    8.675593e-01
  2.480180e+01    8.839769e-01
  2.491293e+01    8.961560e-01
  2.502406e+01    8.749680e-01
  2.513519e+01    9.104184e-01
  2.524632e+01    9.083425e-01
  2.535745e+01    9.645268e-01
  2.546858e+01    1.005310e+00
  2.557971e+01    1.152502e+00
  2.569083e+01    1.485909e+00
  2.580196e+01    2.708074e+00
  2.591309e+01    6.287139e+00
  2.602422e+01    5.255195e+00
  2.613535e+01    2.130899e+00
  2.624648e+01    1.323697e+00
  2.635761e+01    1.079667e+00
  2.646874e+01    9.892862e-01
  2.657987e+01    1.001420e+00
  2.669100e+01    9.780850e-01
  2.680212e+01    9.491320e-01
  2.691325e+01    9.835030e-01
  2.702438e+01    1.143283e+00
  2.713551e+01    1.704073e+00
  2.724664e+01    2.065664e+00
  2.735777e+01    1.251439e+00
  2.746890e+01    1.008378e+00
  2.758003e+01    9.232166e-01
  2.769116e+01    8.970177e-01
  2.780229e+01    8.620111e-01
  2.791342e+01    8.670452e-01
  2.802454e+01    8.703429e-01
  2.813567e+01    8.368071e-01
  2.824680e+01    8.446729e-01
  2.835793e+01    8.422969e-01
  2.846906e+01    8.194999e-01
  2.858019e+01    8.389135e-01
  2.869132e+01    8.225425e-01
  2.880245e+01    8.010149e-01
  2.891358e+01    8.236603e-01
  2.902471e+01    8.054394e-01
  2.913583e+01    7.986487e-01
  2.924696e+01    8.130224e-01
  2.935809e+01    8.073532e-01
  2.946922e+01    7.746007e-01
  2.958035e+01    8.024558e-01
  2.969148e+01    7.679335e-01
  2.980261e+01    8.042781e-01
  2.991374e+01    7.853899e-01
  3.002487e+01    8.196180e-01
  3.013600e+01    7.838582e-01
  3.024712e+01    7.567592e-01
  3.035825e+01    7.603152e-01
  3.046938e+01    7.686222e-01
  3.058051e+01    7.679781e-01
  3.069164e+01    7.702560e-01
  3.080277e+01    7.629153e-01
  3.091390e+01    7.969039e-01
  3.102503e+01    7.817183e-01
  3.113616e+01    7.815710e-01
  3.124729e+01    7.719265e-01
  3.135841e+01    7.910718e-01
  3.146954e+01    8.126720e-01
  3.158067e+01    8.521731e-01
  3.169180e+01    9.717753e-01
  3.180293e+01    1.425443e+00
  3.191406e+01    2.045322e+00
  3.202519e+01    1.329326e+00
  3.213632e+01    9.584558e-01
  3.224745e+01    8.288085e-01
  3.235858e+01    7.941365e-01
  3.246970e+01    7.837857e-01
  3.254908e+01    7.825648e-01