Folder: myspot_2024_07/XRD/Reaction conditions (part 70)

File: 2024-07-27_003_Ru-CGO-ex_Reaction_dwell_000023_data_000171.dat
# == pyFAI calibration ==
# Distance Sample to Detector: 0.4 m
# PONI: 9.750e-02, 1.135e-01 m
# Rotations: -0.000175 0.000000 -0.000000 rad
#
# == Fit2d calibration ==
# Distance Sample-beamCenter: 400.000 mm
# Center: x=1514.000, y=1300.000 pix
# Tilt: 0.010 deg  TiltPlanRot: 0.010 deg
#
# Detector Detector	 Spline= None	 PixelSize= 7.500e-05, 7.500e-05 m
#    Detector has a mask: False
#    Detector has a dark current: False
#    detector has a flat field: False
#
# Wavelength: 6.888e-11 m
# Mask applied: user provided
# Dark current applied: False
# Flat field applied: False
# Polarization factor: 0.99
# Normalization factor: 1.0
# --> /home/myspot/data/2024_07_Rosario/Ru-CGO-ex/2024-07-27_003_Ru-CGO-ex_Reaction_dwell_000023_data_000171.dat
#       q_nm^-1             I
  2.003187e-02    1.424646e-01
  1.311609e-01    6.361058e-02
  2.422899e-01    2.542928e-02
  3.534189e-01    5.801094e-02
  4.645479e-01    6.317138e-02
  5.756770e-01    2.613554e-02
  6.868060e-01    4.827653e-02
  7.979350e-01    1.769904e-01
  9.090640e-01    6.676390e-01
  1.020193e+00    1.234825e+00
  1.131322e+00    1.595959e+00
  1.242451e+00    2.423040e+00
  1.353580e+00    2.870797e+00
  1.464709e+00    3.010732e+00
  1.575838e+00    3.136845e+00
  1.686967e+00    3.049783e+00
  1.798096e+00    3.073745e+00
  1.909225e+00    2.924606e+00
  2.020354e+00    2.885041e+00
  2.131483e+00    3.003592e+00
  2.242612e+00    3.059160e+00
  2.353741e+00    3.138633e+00
  2.464870e+00    3.103955e+00
  2.575999e+00    3.109514e+00
  2.687128e+00    3.127502e+00
  2.798257e+00    3.270552e+00
  2.909386e+00    3.292110e+00
  3.020515e+00    3.206661e+00
  3.131644e+00    3.365315e+00
  3.242773e+00    3.380839e+00
  3.353902e+00    3.386494e+00
  3.465031e+00    3.332163e+00
  3.576160e+00    3.384703e+00
  3.687289e+00    3.442564e+00
  3.798418e+00    3.460756e+00
  3.909547e+00    3.608235e+00
  4.020676e+00    3.466892e+00
  4.131806e+00    3.489441e+00
  4.242935e+00    3.558206e+00
  4.354064e+00    3.468965e+00
  4.465193e+00    3.549133e+00
  4.576322e+00    3.646100e+00
  4.687451e+00    3.494092e+00
  4.798580e+00    3.618238e+00
  4.909709e+00    3.598305e+00
  5.020838e+00    3.620357e+00
  5.131967e+00    3.664413e+00
  5.243096e+00    3.579896e+00
  5.354225e+00    3.637381e+00
  5.465354e+00    3.553290e+00
  5.576483e+00    3.530065e+00
  5.687612e+00    3.523803e+00
  5.798741e+00    3.612522e+00
  5.909870e+00    3.487207e+00
  6.020999e+00    3.397631e+00
  6.132128e+00    3.537537e+00
  6.243257e+00    3.531156e+00
  6.354386e+00    3.425735e+00
  6.465515e+00    3.539886e+00
  6.576644e+00    3.538066e+00
  6.687773e+00    3.460312e+00
  6.798902e+00    3.477449e+00
  6.910031e+00    3.479697e+00
  7.021160e+00    3.470759e+00
  7.132289e+00    3.518765e+00
  7.243418e+00    3.497280e+00
  7.354547e+00    3.467951e+00
  7.465676e+00    3.452591e+00
  7.576805e+00    3.428784e+00
  7.687934e+00    3.429478e+00
  7.799063e+00    3.395108e+00
  7.910192e+00    3.314051e+00
  8.021321e+00    3.373050e+00
  8.132450e+00    3.393059e+00
  8.243579e+00    3.407748e+00
  8.354708e+00    3.396565e+00
  8.465837e+00    3.396950e+00
  8.576966e+00    3.304936e+00
  8.688095e+00    3.336940e+00
  8.799224e+00    3.324161e+00
  8.910353e+00    3.281926e+00
  9.021482e+00    3.283206e+00
  9.132611e+00    3.214726e+00
  9.243740e+00    3.224995e+00
  9.354869e+00    3.248932e+00
  9.465998e+00    3.196215e+00
  9.577127e+00    3.193595e+00
  9.688256e+00    3.104929e+00
  9.799385e+00    3.123546e+00
  9.910514e+00    3.060025e+00
  1.002164e+01    3.090954e+00
  1.013277e+01    3.032808e+00
  1.024390e+01    3.066157e+00
  1.035503e+01    2.993800e+00
  1.046616e+01    2.985560e+00
  1.057729e+01    2.964252e+00
  1.068842e+01    2.910436e+00
  1.079955e+01    2.937033e+00
  1.091068e+01    2.862897e+00
  1.102180e+01    2.888354e+00
  1.113293e+01    2.872710e+00
  1.124406e+01    2.819048e+00
  1.135519e+01    2.769797e+00
  1.146632e+01    2.788009e+00
  1.157745e+01    2.763187e+00
  1.168858e+01    2.747610e+00
  1.179971e+01    2.691223e+00
  1.191084e+01    2.677499e+00
  1.202197e+01    2.677910e+00
  1.213309e+01    2.655636e+00
  1.224422e+01    2.684306e+00
  1.235535e+01    2.677856e+00
  1.246648e+01    2.653254e+00
  1.257761e+01    2.728409e+00
  1.268874e+01    2.774749e+00
  1.279987e+01    2.944152e+00
  1.291100e+01    3.659885e+00
  1.302213e+01    6.598016e+00
  1.313326e+01    1.461793e+01
  1.324438e+01    1.055645e+01
  1.335551e+01    4.391738e+00
  1.346664e+01    3.043218e+00
  1.357777e+01    2.688861e+00
  1.368890e+01    2.563880e+00
  1.380003e+01    2.429042e+00
  1.391116e+01    2.363642e+00
  1.402229e+01    2.280700e+00
  1.413342e+01    2.299789e+00
  1.424455e+01    2.213066e+00
  1.435568e+01    2.237482e+00
  1.446680e+01    2.198264e+00
  1.457793e+01    2.223256e+00
  1.468906e+01    2.182220e+00
  1.480019e+01    2.129110e+00
  1.491132e+01    2.247575e+00
  1.502245e+01    2.512004e+00
  1.513358e+01    3.748726e+00
  1.524471e+01    5.670673e+00
  1.535584e+01    3.703997e+00
  1.546697e+01    2.396607e+00
  1.557809e+01    2.089944e+00
  1.568922e+01    1.957404e+00
  1.580035e+01    1.931214e+00
  1.591148e+01    1.879805e+00
  1.602261e+01    1.875062e+00
  1.613374e+01    1.869864e+00
  1.624487e+01    1.776678e+00
  1.635600e+01    1.771938e+00
  1.646713e+01    1.753359e+00
  1.657826e+01    1.712043e+00
  1.668938e+01    1.714786e+00
  1.680051e+01    1.706616e+00
  1.691164e+01    1.659750e+00
  1.702277e+01    1.668472e+00
  1.713390e+01    1.627018e+00
  1.724503e+01    1.618010e+00
  1.735616e+01    1.558549e+00
  1.746729e+01    1.574495e+00
  1.757842e+01    1.522493e+00
  1.768955e+01    1.544861e+00
  1.780067e+01    1.501276e+00
  1.791180e+01    1.497405e+00
  1.802293e+01    1.467189e+00
  1.813406e+01    1.481505e+00
  1.824519e+01    1.433314e+00
  1.835632e+01    1.449968e+00
  1.846745e+01    1.446970e+00
  1.857858e+01    1.422520e+00
  1.868971e+01    1.425193e+00
  1.880084e+01    1.363201e+00
  1.891196e+01    1.364847e+00
  1.902309e+01    1.328872e+00
  1.913422e+01    1.333219e+00
  1.924535e+01    1.346904e+00
  1.935648e+01    1.316405e+00
  1.946761e+01    1.315848e+00
  1.957874e+01    1.303221e+00
  1.968987e+01    1.302271e+00
  1.980100e+01    1.302199e+00
  1.991213e+01    1.275274e+00
  2.002325e+01    1.269174e+00
  2.013438e+01    1.255322e+00
  2.024551e+01    1.245556e+00
  2.035664e+01    1.237334e+00
  2.046777e+01    1.261891e+00
  2.057890e+01    1.208562e+00
  2.069003e+01    1.236692e+00
  2.080116e+01    1.205382e+00
  2.091229e+01    1.209357e+00
  2.102342e+01    1.182621e+00
  2.113455e+01    1.204392e+00
  2.124567e+01    1.245882e+00
  2.135680e+01    1.277569e+00
  2.146793e+01    1.353928e+00
  2.157906e+01    1.584071e+00
  2.169019e+01    2.513787e+00
  2.180132e+01    5.683175e+00
  2.191245e+01    8.710602e+00
  2.202358e+01    3.598830e+00
  2.213471e+01    1.849440e+00
  2.224584e+01    1.384836e+00
  2.235696e+01    1.220009e+00
  2.246809e+01    1.159661e+00
  2.257922e+01    1.098368e+00
  2.269035e+01    1.077836e+00
  2.280148e+01    1.064269e+00
  2.291261e+01    1.033738e+00
  2.302374e+01    1.023229e+00
  2.313487e+01    9.894609e-01
  2.324600e+01    9.694769e-01
  2.335713e+01    9.820024e-01
  2.346825e+01    9.684992e-01
  2.357938e+01    9.531049e-01
  2.369051e+01    9.089854e-01
  2.380164e+01    9.241744e-01
  2.391277e+01    8.985118e-01
  2.402390e+01    8.920581e-01
  2.413503e+01    8.509713e-01
  2.424616e+01    8.725480e-01
  2.435729e+01    8.682426e-01
  2.446842e+01    8.952823e-01
  2.457954e+01    8.711148e-01
  2.469067e+01    8.965607e-01
  2.480180e+01    8.749610e-01
  2.491293e+01    8.805044e-01
  2.502406e+01    9.021761e-01
  2.513519e+01    8.966954e-01
  2.524632e+01    9.354839e-01
  2.535745e+01    9.588451e-01
  2.546858e+01    1.032231e+00
  2.557971e+01    1.164757e+00
  2.569083e+01    1.503537e+00
  2.580196e+01    2.754108e+00
  2.591309e+01    6.253246e+00
  2.602422e+01    5.242369e+00
  2.613535e+01    2.128597e+00
  2.624648e+01    1.375965e+00
  2.635761e+01    1.079684e+00
  2.646874e+01    9.984910e-01
  2.657987e+01    9.966810e-01
  2.669100e+01    9.612683e-01
  2.680212e+01    9.606059e-01
  2.691325e+01    9.686164e-01
  2.702438e+01    1.143018e+00
  2.713551e+01    1.727827e+00
  2.724664e+01    2.076723e+00
  2.735777e+01    1.291183e+00
  2.746890e+01    1.022886e+00
  2.758003e+01    9.091446e-01
  2.769116e+01    8.839239e-01
  2.780229e+01    8.860046e-01
  2.791342e+01    8.714581e-01
  2.802454e+01    8.732268e-01
  2.813567e+01    8.500121e-01
  2.824680e+01    8.694768e-01
  2.835793e+01    8.546872e-01
  2.846906e+01    8.350365e-01
  2.858019e+01    8.267840e-01
  2.869132e+01    8.234410e-01
  2.880245e+01    8.242255e-01
  2.891358e+01    8.148028e-01
  2.902471e+01    7.920097e-01
  2.913583e+01    8.171828e-01
  2.924696e+01    7.976314e-01
  2.935809e+01    7.912695e-01
  2.946922e+01    7.747350e-01
  2.958035e+01    8.013397e-01
  2.969148e+01    7.767222e-01
  2.980261e+01    7.904205e-01
  2.991374e+01    7.808576e-01
  3.002487e+01    7.845063e-01
  3.013600e+01    7.744386e-01
  3.024712e+01    7.848985e-01
  3.035825e+01    7.782383e-01
  3.046938e+01    7.618402e-01
  3.058051e+01    7.829466e-01
  3.069164e+01    7.581976e-01
  3.080277e+01    7.865003e-01
  3.091390e+01    7.736745e-01
  3.102503e+01    7.735821e-01
  3.113616e+01    7.644377e-01
  3.124729e+01    8.016951e-01
  3.135841e+01    7.915147e-01
  3.146954e+01    8.082954e-01
  3.158067e+01    8.447004e-01
  3.169180e+01    9.612260e-01
  3.180293e+01    1.429052e+00
  3.191406e+01    2.062213e+00
  3.202519e+01    1.280629e+00
  3.213632e+01    9.369733e-01
  3.224745e+01    8.160204e-01
  3.235858e+01    7.945644e-01
  3.246970e+01    7.738281e-01
  3.254908e+01    7.915826e-01

File: 2024-07-27_003_Ru-CGO-ex_Reaction_dwell_000023_data_000172.dat
# == pyFAI calibration ==
# Distance Sample to Detector: 0.4 m
# PONI: 9.750e-02, 1.135e-01 m
# Rotations: -0.000175 0.000000 -0.000000 rad
#
# == Fit2d calibration ==
# Distance Sample-beamCenter: 400.000 mm
# Center: x=1514.000, y=1300.000 pix
# Tilt: 0.010 deg  TiltPlanRot: 0.010 deg
#
# Detector Detector	 Spline= None	 PixelSize= 7.500e-05, 7.500e-05 m
#    Detector has a mask: False
#    Detector has a dark current: False
#    detector has a flat field: False
#
# Wavelength: 6.888e-11 m
# Mask applied: user provided
# Dark current applied: False
# Flat field applied: False
# Polarization factor: 0.99
# Normalization factor: 1.0
# --> /home/myspot/data/2024_07_Rosario/Ru-CGO-ex/2024-07-27_003_Ru-CGO-ex_Reaction_dwell_000023_data_000172.dat
#       q_nm^-1             I
  2.003187e-02    0.000000e+00
  1.311609e-01    1.852704e-02
  2.422899e-01    5.583143e-02
  3.534189e-01    2.647509e-02
  4.645479e-01    3.085894e-02
  5.756770e-01    2.459626e-02
  6.868060e-01    6.325556e-02
  7.979350e-01    1.601257e-01
  9.090640e-01    6.258323e-01
  1.020193e+00    1.314487e+00
  1.131322e+00    1.527782e+00
  1.242451e+00    2.253186e+00
  1.353580e+00    2.687172e+00
  1.464709e+00    3.024803e+00
  1.575838e+00    3.374498e+00
  1.686967e+00    3.244769e+00
  1.798096e+00    3.015512e+00
  1.909225e+00    2.991765e+00
  2.020354e+00    3.151378e+00
  2.131483e+00    3.151113e+00
  2.242612e+00    3.047182e+00
  2.353741e+00    3.096378e+00
  2.464870e+00    3.030144e+00
  2.575999e+00    3.157294e+00
  2.687128e+00    3.194660e+00
  2.798257e+00    3.233361e+00
  2.909386e+00    3.323151e+00
  3.020515e+00    3.391229e+00
  3.131644e+00    3.367238e+00
  3.242773e+00    3.309062e+00
  3.353902e+00    3.362019e+00
  3.465031e+00    3.360260e+00
  3.576160e+00    3.448076e+00
  3.687289e+00    3.470561e+00
  3.798418e+00    3.415547e+00
  3.909547e+00    3.393024e+00
  4.020676e+00    3.533788e+00
  4.131806e+00    3.511283e+00
  4.242935e+00    3.443735e+00
  4.354064e+00    3.543201e+00
  4.465193e+00    3.539760e+00
  4.576322e+00    3.528214e+00
  4.687451e+00    3.613329e+00
  4.798580e+00    3.611976e+00
  4.909709e+00    3.600738e+00
  5.020838e+00    3.545562e+00
  5.131967e+00    3.607634e+00
  5.243096e+00    3.607914e+00
  5.354225e+00    3.657478e+00
  5.465354e+00    3.565709e+00
  5.576483e+00    3.573340e+00
  5.687612e+00    3.638484e+00
  5.798741e+00    3.530199e+00
  5.909870e+00    3.557540e+00
  6.020999e+00    3.592119e+00
  6.132128e+00    3.623824e+00
  6.243257e+00    3.578386e+00
  6.354386e+00    3.466153e+00
  6.465515e+00    3.515204e+00
  6.576644e+00    3.489529e+00
  6.687773e+00    3.501528e+00
  6.798902e+00    3.466393e+00
  6.910031e+00    3.442518e+00
  7.021160e+00    3.480765e+00
  7.132289e+00    3.458918e+00
  7.243418e+00    3.438412e+00
  7.354547e+00    3.488730e+00
  7.465676e+00    3.493729e+00
  7.576805e+00    3.434694e+00
  7.687934e+00    3.477967e+00
  7.799063e+00    3.416459e+00
  7.910192e+00    3.353940e+00
  8.021321e+00    3.473993e+00
  8.132450e+00    3.388454e+00
  8.243579e+00    3.434585e+00
  8.354708e+00    3.287228e+00
  8.465837e+00    3.412885e+00
  8.576966e+00    3.272004e+00
  8.688095e+00    3.274272e+00
  8.799224e+00    3.319485e+00
  8.910353e+00    3.211091e+00
  9.021482e+00    3.191208e+00
  9.132611e+00    3.143883e+00
  9.243740e+00    3.259655e+00
  9.354869e+00    3.179202e+00
  9.465998e+00    3.193093e+00
  9.577127e+00    3.203884e+00
  9.688256e+00    3.227050e+00
  9.799385e+00    3.131028e+00
  9.910514e+00    3.099001e+00
  1.002164e+01    3.057221e+00
  1.013277e+01    3.028719e+00
  1.024390e+01    3.052340e+00
  1.035503e+01    2.986385e+00
  1.046616e+01    2.968057e+00
  1.057729e+01    2.978299e+00
  1.068842e+01    2.920295e+00
  1.079955e+01    2.919925e+00
  1.091068e+01    2.902130e+00
  1.102180e+01    2.869146e+00
  1.113293e+01    2.893545e+00
  1.124406e+01    2.823833e+00
  1.135519e+01    2.807168e+00
  1.146632e+01    2.698825e+00
  1.157745e+01    2.736490e+00
  1.168858e+01    2.751959e+00
  1.179971e+01    2.706033e+00
  1.191084e+01    2.669348e+00
  1.202197e+01    2.651389e+00
  1.213309e+01    2.627097e+00
  1.224422e+01    2.649048e+00
  1.235535e+01    2.669806e+00
  1.246648e+01    2.636019e+00
  1.257761e+01    2.745158e+00
  1.268874e+01    2.813348e+00
  1.279987e+01    2.924109e+00
  1.291100e+01    3.608234e+00
  1.302213e+01    6.634247e+00
  1.313326e+01    1.467219e+01
  1.324438e+01    1.037246e+01
  1.335551e+01    4.407674e+00
  1.346664e+01    3.129574e+00
  1.357777e+01    2.710615e+00
  1.368890e+01    2.553430e+00
  1.380003e+01    2.462937e+00
  1.391116e+01    2.409972e+00
  1.402229e+01    2.344725e+00
  1.413342e+01    2.322360e+00
  1.424455e+01    2.238302e+00
  1.435568e+01    2.217935e+00
  1.446680e+01    2.230401e+00
  1.457793e+01    2.178702e+00
  1.468906e+01    2.175759e+00
  1.480019e+01    2.202954e+00
  1.491132e+01    2.238443e+00
  1.502245e+01    2.471370e+00
  1.513358e+01    3.722252e+00
  1.524471e+01    5.684867e+00
  1.535584e+01    3.683178e+00
  1.546697e+01    2.368533e+00
  1.557809e+01    2.092073e+00
  1.568922e+01    1.961369e+00
  1.580035e+01    1.931547e+00
  1.591148e+01    1.888240e+00
  1.602261e+01    1.826022e+00
  1.613374e+01    1.792047e+00
  1.624487e+01    1.823441e+00
  1.635600e+01    1.771544e+00
  1.646713e+01    1.756691e+00
  1.657826e+01    1.715462e+00
  1.668938e+01    1.709732e+00
  1.680051e+01    1.660680e+00
  1.691164e+01    1.689228e+00
  1.702277e+01    1.670092e+00
  1.713390e+01    1.649432e+00
  1.724503e+01    1.588449e+00
  1.735616e+01    1.578401e+00
  1.746729e+01    1.527997e+00
  1.757842e+01    1.551050e+00
  1.768955e+01    1.544435e+00
  1.780067e+01    1.532757e+00
  1.791180e+01    1.479218e+00
  1.802293e+01    1.482335e+00
  1.813406e+01    1.483043e+00
  1.824519e+01    1.435559e+00
  1.835632e+01    1.440909e+00
  1.846745e+01    1.412996e+00
  1.857858e+01    1.418737e+00
  1.868971e+01    1.399489e+00
  1.880084e+01    1.363218e+00
  1.891196e+01    1.373325e+00
  1.902309e+01    1.359817e+00
  1.913422e+01    1.354897e+00
  1.924535e+01    1.354070e+00
  1.935648e+01    1.310176e+00
  1.946761e+01    1.288481e+00
  1.957874e+01    1.323966e+00
  1.968987e+01    1.303203e+00
  1.980100e+01    1.313660e+00
  1.991213e+01    1.262750e+00
  2.002325e+01    1.281891e+00
  2.013438e+01    1.248193e+00
  2.024551e+01    1.252727e+00
  2.035664e+01    1.220014e+00
  2.046777e+01    1.223028e+00
  2.057890e+01    1.219623e+00
  2.069003e+01    1.226152e+00
  2.080116e+01    1.234400e+00
  2.091229e+01    1.213738e+00
  2.102342e+01    1.186603e+00
  2.113455e+01    1.215816e+00
  2.124567e+01    1.254670e+00
  2.135680e+01    1.272932e+00
  2.146793e+01    1.356971e+00
  2.157906e+01    1.592416e+00
  2.169019e+01    2.494085e+00
  2.180132e+01    5.846925e+00
  2.191245e+01    8.616296e+00
  2.202358e+01    3.528430e+00
  2.213471e+01    1.875508e+00
  2.224584e+01    1.387825e+00
  2.235696e+01    1.228000e+00
  2.246809e+01    1.128408e+00
  2.257922e+01    1.088385e+00
  2.269035e+01    1.065922e+00
  2.280148e+01    1.040656e+00
  2.291261e+01    1.012064e+00
  2.302374e+01    1.014821e+00
  2.313487e+01    9.824820e-01
  2.324600e+01    9.657148e-01
  2.335713e+01    9.612290e-01
  2.346825e+01    9.651387e-01
  2.357938e+01    9.496955e-01
  2.369051e+01    9.097969e-01
  2.380164e+01    9.061350e-01
  2.391277e+01    8.934761e-01
  2.402390e+01    8.846985e-01
  2.413503e+01    8.878127e-01
  2.424616e+01    8.607486e-01
  2.435729e+01    9.022552e-01
  2.446842e+01    8.856725e-01
  2.457954e+01    9.016340e-01
  2.469067e+01    8.848730e-01
  2.480180e+01    8.554132e-01
  2.491293e+01    8.792315e-01
  2.502406e+01    8.906252e-01
  2.513519e+01    9.120219e-01
  2.524632e+01    9.215587e-01
  2.535745e+01    9.345325e-01
  2.546858e+01    1.020003e+00
  2.557971e+01    1.122116e+00
  2.569083e+01    1.473584e+00
  2.580196e+01    2.814562e+00
  2.591309e+01    6.332564e+00
  2.602422e+01    5.104630e+00
  2.613535e+01    2.044062e+00
  2.624648e+01    1.342675e+00
  2.635761e+01    1.083493e+00
  2.646874e+01    1.004682e+00
  2.657987e+01    9.764398e-01
  2.669100e+01    9.506434e-01
  2.680212e+01    9.637153e-01
  2.691325e+01    9.982390e-01
  2.702438e+01    1.136077e+00
  2.713551e+01    1.712077e+00
  2.724664e+01    2.057349e+00
  2.735777e+01    1.235579e+00
  2.746890e+01    9.744249e-01
  2.758003e+01    9.156621e-01
  2.769116e+01    9.016356e-01
  2.780229e+01    8.669575e-01
  2.791342e+01    8.647535e-01
  2.802454e+01    8.615642e-01
  2.813567e+01    8.527097e-01
  2.824680e+01    8.571168e-01
  2.835793e+01    8.369625e-01
  2.846906e+01    8.299969e-01
  2.858019e+01    8.327046e-01
  2.869132e+01    8.186725e-01
  2.880245e+01    8.027188e-01
  2.891358e+01    8.450394e-01
  2.902471e+01    8.041689e-01
  2.913583e+01    8.072994e-01
  2.924696e+01    8.040372e-01
  2.935809e+01    8.061960e-01
  2.946922e+01    7.832921e-01
  2.958035e+01    8.248905e-01
  2.969148e+01    7.958333e-01
  2.980261e+01    7.590321e-01
  2.991374e+01    7.816945e-01
  3.002487e+01    8.024117e-01
  3.013600e+01    7.558787e-01
  3.024712e+01    7.715377e-01
  3.035825e+01    7.608191e-01
  3.046938e+01    7.717240e-01
  3.058051e+01    7.829261e-01
  3.069164e+01    7.521774e-01
  3.080277e+01    7.624433e-01
  3.091390e+01    7.659038e-01
  3.102503e+01    7.584432e-01
  3.113616e+01    7.807612e-01
  3.124729e+01    7.815076e-01
  3.135841e+01    7.870256e-01
  3.146954e+01    7.954767e-01
  3.158067e+01    8.455549e-01
  3.169180e+01    9.945043e-01
  3.180293e+01    1.455395e+00
  3.191406e+01    2.063285e+00
  3.202519e+01    1.303447e+00
  3.213632e+01    9.337900e-01
  3.224745e+01    8.372268e-01
  3.235858e+01    8.042077e-01
  3.246970e+01    7.634571e-01
  3.254908e+01    7.663153e-01