Folder: myspot_2024_07/XRD/Reaction conditions (part 18)

File: 2024-07-27_003_Ru-CGO-ex_Reaction_dwell_000023_data_000045.dat
# == pyFAI calibration ==
# Distance Sample to Detector: 0.4 m
# PONI: 9.750e-02, 1.135e-01 m
# Rotations: -0.000175 0.000000 -0.000000 rad
#
# == Fit2d calibration ==
# Distance Sample-beamCenter: 400.000 mm
# Center: x=1514.000, y=1300.000 pix
# Tilt: 0.010 deg  TiltPlanRot: 0.010 deg
#
# Detector Detector	 Spline= None	 PixelSize= 7.500e-05, 7.500e-05 m
#    Detector has a mask: False
#    Detector has a dark current: False
#    detector has a flat field: False
#
# Wavelength: 6.888e-11 m
# Mask applied: user provided
# Dark current applied: False
# Flat field applied: False
# Polarization factor: 0.99
# Normalization factor: 1.0
# --> /home/myspot/data/2024_07_Rosario/Ru-CGO-ex/2024-07-27_003_Ru-CGO-ex_Reaction_dwell_000023_data_000045.dat
#       q_nm^-1             I
  2.003187e-02    0.000000e+00
  1.311609e-01    2.716236e-02
  2.422899e-01    7.159980e-02
  3.534189e-01    4.952655e-02
  4.645479e-01    6.009320e-02
  5.756770e-01    3.495513e-02
  6.868060e-01    2.098493e-02
  7.979350e-01    1.891672e-01
  9.090640e-01    6.988167e-01
  1.020193e+00    1.288201e+00
  1.131322e+00    1.562946e+00
  1.242451e+00    2.440008e+00
  1.353580e+00    2.834912e+00
  1.464709e+00    3.055042e+00
  1.575838e+00    3.304072e+00
  1.686967e+00    3.165628e+00
  1.798096e+00    2.981622e+00
  1.909225e+00    2.939556e+00
  2.020354e+00    3.068131e+00
  2.131483e+00    3.198805e+00
  2.242612e+00    3.182245e+00
  2.353741e+00    3.060034e+00
  2.464870e+00    3.204993e+00
  2.575999e+00    3.139125e+00
  2.687128e+00    3.246205e+00
  2.798257e+00    3.350732e+00
  2.909386e+00    3.327853e+00
  3.020515e+00    3.369251e+00
  3.131644e+00    3.401184e+00
  3.242773e+00    3.231999e+00
  3.353902e+00    3.327943e+00
  3.465031e+00    3.488325e+00
  3.576160e+00    3.409103e+00
  3.687289e+00    3.493408e+00
  3.798418e+00    3.588147e+00
  3.909547e+00    3.541662e+00
  4.020676e+00    3.567878e+00
  4.131806e+00    3.522574e+00
  4.242935e+00    3.529449e+00
  4.354064e+00    3.669113e+00
  4.465193e+00    3.714957e+00
  4.576322e+00    3.666658e+00
  4.687451e+00    3.623782e+00
  4.798580e+00    3.618068e+00
  4.909709e+00    3.709628e+00
  5.020838e+00    3.692204e+00
  5.131967e+00    3.665078e+00
  5.243096e+00    3.580173e+00
  5.354225e+00    3.657170e+00
  5.465354e+00    3.697097e+00
  5.576483e+00    3.675622e+00
  5.687612e+00    3.677531e+00
  5.798741e+00    3.692906e+00
  5.909870e+00    3.550130e+00
  6.020999e+00    3.567571e+00
  6.132128e+00    3.632359e+00
  6.243257e+00    3.613381e+00
  6.354386e+00    3.596850e+00
  6.465515e+00    3.600400e+00
  6.576644e+00    3.535173e+00
  6.687773e+00    3.598434e+00
  6.798902e+00    3.517498e+00
  6.910031e+00    3.546522e+00
  7.021160e+00    3.505873e+00
  7.132289e+00    3.503265e+00
  7.243418e+00    3.554124e+00
  7.354547e+00    3.557169e+00
  7.465676e+00    3.477436e+00
  7.576805e+00    3.498592e+00
  7.687934e+00    3.468745e+00
  7.799063e+00    3.472231e+00
  7.910192e+00    3.377462e+00
  8.021321e+00    3.424802e+00
  8.132450e+00    3.476088e+00
  8.243579e+00    3.526982e+00
  8.354708e+00    3.383223e+00
  8.465837e+00    3.306585e+00
  8.576966e+00    3.322292e+00
  8.688095e+00    3.408364e+00
  8.799224e+00    3.338332e+00
  8.910353e+00    3.335747e+00
  9.021482e+00    3.287089e+00
  9.132611e+00    3.239246e+00
  9.243740e+00    3.227110e+00
  9.354869e+00    3.221328e+00
  9.465998e+00    3.233533e+00
  9.577127e+00    3.184759e+00
  9.688256e+00    3.286654e+00
  9.799385e+00    3.184325e+00
  9.910514e+00    3.137065e+00
  1.002164e+01    3.162922e+00
  1.013277e+01    3.057267e+00
  1.024390e+01    3.125064e+00
  1.035503e+01    3.100845e+00
  1.046616e+01    3.061529e+00
  1.057729e+01    3.020670e+00
  1.068842e+01    2.974118e+00
  1.079955e+01    2.954120e+00
  1.091068e+01    2.951596e+00
  1.102180e+01    2.954019e+00
  1.113293e+01    2.871770e+00
  1.124406e+01    2.849694e+00
  1.135519e+01    2.849446e+00
  1.146632e+01    2.817585e+00
  1.157745e+01    2.768782e+00
  1.168858e+01    2.710337e+00
  1.179971e+01    2.740746e+00
  1.191084e+01    2.729198e+00
  1.202197e+01    2.742555e+00
  1.213309e+01    2.726404e+00
  1.224422e+01    2.708757e+00
  1.235535e+01    2.633444e+00
  1.246648e+01    2.708562e+00
  1.257761e+01    2.798164e+00
  1.268874e+01    2.764941e+00
  1.279987e+01    3.034626e+00
  1.291100e+01    3.635552e+00
  1.302213e+01    6.656552e+00
  1.313326e+01    1.474020e+01
  1.324438e+01    1.078369e+01
  1.335551e+01    4.446372e+00
  1.346664e+01    3.124571e+00
  1.357777e+01    2.732723e+00
  1.368890e+01    2.554470e+00
  1.380003e+01    2.459836e+00
  1.391116e+01    2.398568e+00
  1.402229e+01    2.358036e+00
  1.413342e+01    2.347834e+00
  1.424455e+01    2.304321e+00
  1.435568e+01    2.248036e+00
  1.446680e+01    2.241916e+00
  1.457793e+01    2.199964e+00
  1.468906e+01    2.220576e+00
  1.480019e+01    2.191053e+00
  1.491132e+01    2.249252e+00
  1.502245e+01    2.506845e+00
  1.513358e+01    3.757997e+00
  1.524471e+01    5.710081e+00
  1.535584e+01    3.773372e+00
  1.546697e+01    2.414067e+00
  1.557809e+01    2.154577e+00
  1.568922e+01    2.011067e+00
  1.580035e+01    1.949176e+00
  1.591148e+01    1.921357e+00
  1.602261e+01    1.885633e+00
  1.613374e+01    1.876768e+00
  1.624487e+01    1.827927e+00
  1.635600e+01    1.790960e+00
  1.646713e+01    1.757822e+00
  1.657826e+01    1.757657e+00
  1.668938e+01    1.733759e+00
  1.680051e+01    1.723255e+00
  1.691164e+01    1.681931e+00
  1.702277e+01    1.654802e+00
  1.713390e+01    1.644120e+00
  1.724503e+01    1.634878e+00
  1.735616e+01    1.641160e+00
  1.746729e+01    1.620764e+00
  1.757842e+01    1.594412e+00
  1.768955e+01    1.540695e+00
  1.780067e+01    1.559536e+00
  1.791180e+01    1.516659e+00
  1.802293e+01    1.486109e+00
  1.813406e+01    1.493292e+00
  1.824519e+01    1.486290e+00
  1.835632e+01    1.475088e+00
  1.846745e+01    1.456517e+00
  1.857858e+01    1.411959e+00
  1.868971e+01    1.413113e+00
  1.880084e+01    1.425106e+00
  1.891196e+01    1.383407e+00
  1.902309e+01    1.368275e+00
  1.913422e+01    1.370784e+00
  1.924535e+01    1.371603e+00
  1.935648e+01    1.329821e+00
  1.946761e+01    1.318157e+00
  1.957874e+01    1.317554e+00
  1.968987e+01    1.323923e+00
  1.980100e+01    1.324394e+00
  1.991213e+01    1.308387e+00
  2.002325e+01    1.291495e+00
  2.013438e+01    1.291784e+00
  2.024551e+01    1.267144e+00
  2.035664e+01    1.263063e+00
  2.046777e+01    1.256094e+00
  2.057890e+01    1.237295e+00
  2.069003e+01    1.233546e+00
  2.080116e+01    1.252796e+00
  2.091229e+01    1.239556e+00
  2.102342e+01    1.240308e+00
  2.113455e+01    1.232753e+00
  2.124567e+01    1.268615e+00
  2.135680e+01    1.279664e+00
  2.146793e+01    1.383998e+00
  2.157906e+01    1.615006e+00
  2.169019e+01    2.498375e+00
  2.180132e+01    5.779329e+00
  2.191245e+01    8.698763e+00
  2.202358e+01    3.632497e+00
  2.213471e+01    1.857080e+00
  2.224584e+01    1.401007e+00
  2.235696e+01    1.258538e+00
  2.246809e+01    1.179678e+00
  2.257922e+01    1.116905e+00
  2.269035e+01    1.076455e+00
  2.280148e+01    1.069689e+00
  2.291261e+01    1.052848e+00
  2.302374e+01    1.031288e+00
  2.313487e+01    1.005876e+00
  2.324600e+01    9.980155e-01
  2.335713e+01    9.854741e-01
  2.346825e+01    9.640195e-01
  2.357938e+01    9.639643e-01
  2.369051e+01    9.410680e-01
  2.380164e+01    9.470211e-01
  2.391277e+01    9.014421e-01
  2.402390e+01    9.009358e-01
  2.413503e+01    8.797198e-01
  2.424616e+01    8.995031e-01
  2.435729e+01    8.727328e-01
  2.446842e+01    8.948346e-01
  2.457954e+01    9.081659e-01
  2.469067e+01    9.055930e-01
  2.480180e+01    9.065836e-01
  2.491293e+01    9.024355e-01
  2.502406e+01    9.109480e-01
  2.513519e+01    9.290746e-01
  2.524632e+01    9.527328e-01
  2.535745e+01    1.004573e+00
  2.546858e+01    1.031733e+00
  2.557971e+01    1.158967e+00
  2.569083e+01    1.519456e+00
  2.580196e+01    2.809397e+00
  2.591309e+01    6.277241e+00
  2.602422e+01    5.343171e+00
  2.613535e+01    2.159644e+00
  2.624648e+01    1.351393e+00
  2.635761e+01    1.116151e+00
  2.646874e+01    1.026105e+00
  2.657987e+01    9.923542e-01
  2.669100e+01    9.651087e-01
  2.680212e+01    9.893218e-01
  2.691325e+01    1.006363e+00
  2.702438e+01    1.151393e+00
  2.713551e+01    1.712643e+00
  2.724664e+01    2.090531e+00
  2.735777e+01    1.283937e+00
  2.746890e+01    1.022216e+00
  2.758003e+01    9.292848e-01
  2.769116e+01    9.303174e-01
  2.780229e+01    8.952206e-01
  2.791342e+01    8.785595e-01
  2.802454e+01    8.760398e-01
  2.813567e+01    8.656107e-01
  2.824680e+01    8.545784e-01
  2.835793e+01    8.322312e-01
  2.846906e+01    8.196761e-01
  2.858019e+01    8.429580e-01
  2.869132e+01    8.405842e-01
  2.880245e+01    8.389894e-01
  2.891358e+01    8.341617e-01
  2.902471e+01    8.182831e-01
  2.913583e+01    8.203614e-01
  2.924696e+01    7.991873e-01
  2.935809e+01    8.180231e-01
  2.946922e+01    8.251131e-01
  2.958035e+01    7.914631e-01
  2.969148e+01    7.993616e-01
  2.980261e+01    7.841914e-01
  2.991374e+01    7.954374e-01
  3.002487e+01    8.095785e-01
  3.013600e+01    7.816875e-01
  3.024712e+01    7.885737e-01
  3.035825e+01    7.802335e-01
  3.046938e+01    7.745242e-01
  3.058051e+01    7.832663e-01
  3.069164e+01    7.763961e-01
  3.080277e+01    7.776212e-01
  3.091390e+01    7.916272e-01
  3.102503e+01    8.001171e-01
  3.113616e+01    7.915608e-01
  3.124729e+01    7.810763e-01
  3.135841e+01    8.045865e-01
  3.146954e+01    8.153321e-01
  3.158067e+01    8.449131e-01
  3.169180e+01    9.716462e-01
  3.180293e+01    1.437164e+00
  3.191406e+01    2.087652e+00
  3.202519e+01    1.345931e+00
  3.213632e+01    9.297820e-01
  3.224745e+01    8.295378e-01
  3.235858e+01    8.069813e-01
  3.246970e+01    7.723496e-01
  3.254908e+01    7.610106e-01

File: 2024-07-27_003_Ru-CGO-ex_Reaction_dwell_000023_data_000046.dat
# == pyFAI calibration ==
# Distance Sample to Detector: 0.4 m
# PONI: 9.750e-02, 1.135e-01 m
# Rotations: -0.000175 0.000000 -0.000000 rad
#
# == Fit2d calibration ==
# Distance Sample-beamCenter: 400.000 mm
# Center: x=1514.000, y=1300.000 pix
# Tilt: 0.010 deg  TiltPlanRot: 0.010 deg
#
# Detector Detector	 Spline= None	 PixelSize= 7.500e-05, 7.500e-05 m
#    Detector has a mask: False
#    Detector has a dark current: False
#    detector has a flat field: False
#
# Wavelength: 6.888e-11 m
# Mask applied: user provided
# Dark current applied: False
# Flat field applied: False
# Polarization factor: 0.99
# Normalization factor: 1.0
# --> /home/myspot/data/2024_07_Rosario/Ru-CGO-ex/2024-07-27_003_Ru-CGO-ex_Reaction_dwell_000023_data_000046.dat
#       q_nm^-1             I
  2.003187e-02    0.000000e+00
  1.311609e-01    4.570951e-02
  2.422899e-01    5.273082e-02
  3.534189e-01    3.216204e-02
  4.645479e-01    2.856985e-02
  5.756770e-01    3.112039e-02
  6.868060e-01    4.223780e-02
  7.979350e-01    2.190707e-01
  9.090640e-01    6.819053e-01
  1.020193e+00    1.230522e+00
  1.131322e+00    1.674833e+00
  1.242451e+00    2.214427e+00
  1.353580e+00    2.870149e+00
  1.464709e+00    3.088511e+00
  1.575838e+00    3.190576e+00
  1.686967e+00    3.209368e+00
  1.798096e+00    3.117261e+00
  1.909225e+00    3.140745e+00
  2.020354e+00    2.966859e+00
  2.131483e+00    3.059153e+00
  2.242612e+00    3.121619e+00
  2.353741e+00    3.092602e+00
  2.464870e+00    3.130059e+00
  2.575999e+00    3.306771e+00
  2.687128e+00    3.149831e+00
  2.798257e+00    3.211646e+00
  2.909386e+00    3.267580e+00
  3.020515e+00    3.314627e+00
  3.131644e+00    3.383564e+00
  3.242773e+00    3.310709e+00
  3.353902e+00    3.399843e+00
  3.465031e+00    3.416837e+00
  3.576160e+00    3.405666e+00
  3.687289e+00    3.588205e+00
  3.798418e+00    3.442186e+00
  3.909547e+00    3.423420e+00
  4.020676e+00    3.538119e+00
  4.131806e+00    3.580032e+00
  4.242935e+00    3.677097e+00
  4.354064e+00    3.537229e+00
  4.465193e+00    3.488612e+00
  4.576322e+00    3.586640e+00
  4.687451e+00    3.562469e+00
  4.798580e+00    3.637990e+00
  4.909709e+00    3.625817e+00
  5.020838e+00    3.700897e+00
  5.131967e+00    3.652259e+00
  5.243096e+00    3.694425e+00
  5.354225e+00    3.541277e+00
  5.465354e+00    3.703475e+00
  5.576483e+00    3.605842e+00
  5.687612e+00    3.558568e+00
  5.798741e+00    3.631507e+00
  5.909870e+00    3.629356e+00
  6.020999e+00    3.614294e+00
  6.132128e+00    3.536543e+00
  6.243257e+00    3.710268e+00
  6.354386e+00    3.476141e+00
  6.465515e+00    3.586490e+00
  6.576644e+00    3.594359e+00
  6.687773e+00    3.610231e+00
  6.798902e+00    3.507147e+00
  6.910031e+00    3.536044e+00
  7.021160e+00    3.541346e+00
  7.132289e+00    3.518727e+00
  7.243418e+00    3.520311e+00
  7.354547e+00    3.511803e+00
  7.465676e+00    3.463956e+00
  7.576805e+00    3.455856e+00
  7.687934e+00    3.490319e+00
  7.799063e+00    3.412869e+00
  7.910192e+00    3.477981e+00
  8.021321e+00    3.399274e+00
  8.132450e+00    3.346594e+00
  8.243579e+00    3.460231e+00
  8.354708e+00    3.421683e+00
  8.465837e+00    3.343556e+00
  8.576966e+00    3.342301e+00
  8.688095e+00    3.353959e+00
  8.799224e+00    3.338431e+00
  8.910353e+00    3.296323e+00
  9.021482e+00    3.310953e+00
  9.132611e+00    3.289002e+00
  9.243740e+00    3.265726e+00
  9.354869e+00    3.220273e+00
  9.465998e+00    3.233949e+00
  9.577127e+00    3.179775e+00
  9.688256e+00    3.191342e+00
  9.799385e+00    3.111940e+00
  9.910514e+00    3.118182e+00
  1.002164e+01    3.048079e+00
  1.013277e+01    3.132067e+00
  1.024390e+01    3.055708e+00
  1.035503e+01    3.073653e+00
  1.046616e+01    3.048674e+00
  1.057729e+01    3.016023e+00
  1.068842e+01    3.052011e+00
  1.079955e+01    3.025444e+00
  1.091068e+01    2.921602e+00
  1.102180e+01    2.906437e+00
  1.113293e+01    2.923326e+00
  1.124406e+01    2.853351e+00
  1.135519e+01    2.866073e+00
  1.146632e+01    2.790668e+00
  1.157745e+01    2.780619e+00
  1.168858e+01    2.757656e+00
  1.179971e+01    2.758648e+00
  1.191084e+01    2.714772e+00
  1.202197e+01    2.707527e+00
  1.213309e+01    2.681649e+00
  1.224422e+01    2.697581e+00
  1.235535e+01    2.666404e+00
  1.246648e+01    2.701359e+00
  1.257761e+01    2.680791e+00
  1.268874e+01    2.825773e+00
  1.279987e+01    2.957134e+00
  1.291100e+01    3.682922e+00
  1.302213e+01    6.660034e+00
  1.313326e+01    1.480338e+01
  1.324438e+01    1.069279e+01
  1.335551e+01    4.471105e+00
  1.346664e+01    3.158765e+00
  1.357777e+01    2.737123e+00
  1.368890e+01    2.602408e+00
  1.380003e+01    2.458947e+00
  1.391116e+01    2.431072e+00
  1.402229e+01    2.352758e+00
  1.413342e+01    2.375408e+00
  1.424455e+01    2.257725e+00
  1.435568e+01    2.273417e+00
  1.446680e+01    2.254514e+00
  1.457793e+01    2.227140e+00
  1.468906e+01    2.181998e+00
  1.480019e+01    2.201635e+00
  1.491132e+01    2.264231e+00
  1.502245e+01    2.531540e+00
  1.513358e+01    3.803199e+00
  1.524471e+01    5.735051e+00
  1.535584e+01    3.780917e+00
  1.546697e+01    2.461370e+00
  1.557809e+01    2.144472e+00
  1.568922e+01    2.015957e+00
  1.580035e+01    1.934756e+00
  1.591148e+01    1.890980e+00
  1.602261e+01    1.841374e+00
  1.613374e+01    1.840107e+00
  1.624487e+01    1.791879e+00
  1.635600e+01    1.778098e+00
  1.646713e+01    1.779273e+00
  1.657826e+01    1.705292e+00
  1.668938e+01    1.719825e+00
  1.680051e+01    1.712683e+00
  1.691164e+01    1.686440e+00
  1.702277e+01    1.665263e+00
  1.713390e+01    1.663992e+00
  1.724503e+01    1.633376e+00
  1.735616e+01    1.588511e+00
  1.746729e+01    1.619220e+00
  1.757842e+01    1.544269e+00
  1.768955e+01    1.553269e+00
  1.780067e+01    1.556506e+00
  1.791180e+01    1.538550e+00
  1.802293e+01    1.515870e+00
  1.813406e+01    1.502465e+00
  1.824519e+01    1.509433e+00
  1.835632e+01    1.474676e+00
  1.846745e+01    1.469551e+00
  1.857858e+01    1.435044e+00
  1.868971e+01    1.409002e+00
  1.880084e+01    1.407559e+00
  1.891196e+01    1.378764e+00
  1.902309e+01    1.397112e+00
  1.913422e+01    1.362230e+00
  1.924535e+01    1.393957e+00
  1.935648e+01    1.320439e+00
  1.946761e+01    1.360988e+00
  1.957874e+01    1.331901e+00
  1.968987e+01    1.340189e+00
  1.980100e+01    1.264493e+00
  1.991213e+01    1.289943e+00
  2.002325e+01    1.288919e+00
  2.013438e+01    1.277555e+00
  2.024551e+01    1.251273e+00
  2.035664e+01    1.248021e+00
  2.046777e+01    1.266304e+00
  2.057890e+01    1.236748e+00
  2.069003e+01    1.226293e+00
  2.080116e+01    1.218945e+00
  2.091229e+01    1.240391e+00
  2.102342e+01    1.250896e+00
  2.113455e+01    1.222673e+00
  2.124567e+01    1.243925e+00
  2.135680e+01    1.265733e+00
  2.146793e+01    1.370686e+00
  2.157906e+01    1.593161e+00
  2.169019e+01    2.484347e+00
  2.180132e+01    5.818379e+00
  2.191245e+01    8.750100e+00
  2.202358e+01    3.651273e+00
  2.213471e+01    1.828243e+00
  2.224584e+01    1.405652e+00
  2.235696e+01    1.241059e+00
  2.246809e+01    1.149749e+00
  2.257922e+01    1.115383e+00
  2.269035e+01    1.065865e+00
  2.280148e+01    1.057428e+00
  2.291261e+01    1.022916e+00
  2.302374e+01    1.033841e+00
  2.313487e+01    1.009627e+00
  2.324600e+01    9.947999e-01
  2.335713e+01    9.881286e-01
  2.346825e+01    9.631818e-01
  2.357938e+01    9.681557e-01
  2.369051e+01    9.332537e-01
  2.380164e+01    9.059069e-01
  2.391277e+01    9.084376e-01
  2.402390e+01    8.923393e-01
  2.413503e+01    8.956743e-01
  2.424616e+01    8.889749e-01
  2.435729e+01    9.075903e-01
  2.446842e+01    8.997799e-01
  2.457954e+01    8.771845e-01
  2.469067e+01    8.904765e-01
  2.480180e+01    8.849713e-01
  2.491293e+01    8.854796e-01
  2.502406e+01    8.782764e-01
  2.513519e+01    9.009477e-01
  2.524632e+01    9.559948e-01
  2.535745e+01    9.694924e-01
  2.546858e+01    1.033218e+00
  2.557971e+01    1.142467e+00
  2.569083e+01    1.494975e+00
  2.580196e+01    2.789143e+00
  2.591309e+01    6.313107e+00
  2.602422e+01    5.315495e+00
  2.613535e+01    2.143471e+00
  2.624648e+01    1.350733e+00
  2.635761e+01    1.101635e+00
  2.646874e+01    1.023677e+00
  2.657987e+01    9.847870e-01
  2.669100e+01    9.796922e-01
  2.680212e+01    9.882360e-01
  2.691325e+01    1.006406e+00
  2.702438e+01    1.133403e+00
  2.713551e+01    1.723942e+00
  2.724664e+01    2.068720e+00
  2.735777e+01    1.289859e+00
  2.746890e+01    1.009697e+00
  2.758003e+01    9.445156e-01
  2.769116e+01    9.207466e-01
  2.780229e+01    9.099071e-01
  2.791342e+01    8.623317e-01
  2.802454e+01    8.588158e-01
  2.813567e+01    8.549675e-01
  2.824680e+01    8.658909e-01
  2.835793e+01    8.542159e-01
  2.846906e+01    8.337767e-01
  2.858019e+01    8.442778e-01
  2.869132e+01    8.499682e-01
  2.880245e+01    8.206295e-01
  2.891358e+01    8.082364e-01
  2.902471e+01    8.077542e-01
  2.913583e+01    7.882106e-01
  2.924696e+01    8.178487e-01
  2.935809e+01    8.202953e-01
  2.946922e+01    8.143243e-01
  2.958035e+01    7.812988e-01
  2.969148e+01    8.141649e-01
  2.980261e+01    7.887908e-01
  2.991374e+01    7.906855e-01
  3.002487e+01    8.011988e-01
  3.013600e+01    7.966484e-01
  3.024712e+01    7.922113e-01
  3.035825e+01    7.838752e-01
  3.046938e+01    8.096659e-01
  3.058051e+01    7.896687e-01
  3.069164e+01    7.904586e-01
  3.080277e+01    7.863611e-01
  3.091390e+01    7.920446e-01
  3.102503e+01    7.616479e-01
  3.113616e+01    7.760184e-01
  3.124729e+01    7.861952e-01
  3.135841e+01    8.018185e-01
  3.146954e+01    8.274911e-01
  3.158067e+01    8.654487e-01
  3.169180e+01    9.832056e-01
  3.180293e+01    1.446115e+00
  3.191406e+01    2.075431e+00
  3.202519e+01    1.342599e+00
  3.213632e+01    9.171188e-01
  3.224745e+01    8.340178e-01
  3.235858e+01    8.049850e-01
  3.246970e+01    7.759386e-01
  3.254908e+01    7.540137e-01