Folder: myspot_2024_07/XRD/Reaction conditions (part 43)

File: 2024-07-27_003_Ru-CGO-ex_Reaction_dwell_000023_data_000111.dat
# == pyFAI calibration ==
# Distance Sample to Detector: 0.4 m
# PONI: 9.750e-02, 1.135e-01 m
# Rotations: -0.000175 0.000000 -0.000000 rad
#
# == Fit2d calibration ==
# Distance Sample-beamCenter: 400.000 mm
# Center: x=1514.000, y=1300.000 pix
# Tilt: 0.010 deg  TiltPlanRot: 0.010 deg
#
# Detector Detector	 Spline= None	 PixelSize= 7.500e-05, 7.500e-05 m
#    Detector has a mask: False
#    Detector has a dark current: False
#    detector has a flat field: False
#
# Wavelength: 6.888e-11 m
# Mask applied: user provided
# Dark current applied: False
# Flat field applied: False
# Polarization factor: 0.99
# Normalization factor: 1.0
# --> /home/myspot/data/2024_07_Rosario/Ru-CGO-ex/2024-07-27_003_Ru-CGO-ex_Reaction_dwell_000023_data_000111.dat
#       q_nm^-1             I
  2.003187e-02    0.000000e+00
  1.311609e-01    2.876877e-03
  2.422899e-01    2.564010e-02
  3.534189e-01    7.238314e-03
  4.645479e-01    3.054112e-02
  5.756770e-01    4.890322e-02
  6.868060e-01    4.813820e-02
  7.979350e-01    1.575315e-01
  9.090640e-01    7.206885e-01
  1.020193e+00    1.287926e+00
  1.131322e+00    1.644152e+00
  1.242451e+00    2.345338e+00
  1.353580e+00    2.772908e+00
  1.464709e+00    3.121881e+00
  1.575838e+00    3.151691e+00
  1.686967e+00    3.166007e+00
  1.798096e+00    3.132447e+00
  1.909225e+00    3.047459e+00
  2.020354e+00    3.204053e+00
  2.131483e+00    3.106634e+00
  2.242612e+00    3.177146e+00
  2.353741e+00    3.177528e+00
  2.464870e+00    3.254535e+00
  2.575999e+00    3.184594e+00
  2.687128e+00    3.245572e+00
  2.798257e+00    3.263399e+00
  2.909386e+00    3.367576e+00
  3.020515e+00    3.359146e+00
  3.131644e+00    3.385175e+00
  3.242773e+00    3.392543e+00
  3.353902e+00    3.393328e+00
  3.465031e+00    3.408255e+00
  3.576160e+00    3.367301e+00
  3.687289e+00    3.400949e+00
  3.798418e+00    3.519089e+00
  3.909547e+00    3.468351e+00
  4.020676e+00    3.571185e+00
  4.131806e+00    3.583524e+00
  4.242935e+00    3.623034e+00
  4.354064e+00    3.545122e+00
  4.465193e+00    3.615658e+00
  4.576322e+00    3.608782e+00
  4.687451e+00    3.593523e+00
  4.798580e+00    3.623701e+00
  4.909709e+00    3.713520e+00
  5.020838e+00    3.659204e+00
  5.131967e+00    3.671346e+00
  5.243096e+00    3.633892e+00
  5.354225e+00    3.646128e+00
  5.465354e+00    3.657761e+00
  5.576483e+00    3.688437e+00
  5.687612e+00    3.535682e+00
  5.798741e+00    3.525361e+00
  5.909870e+00    3.596399e+00
  6.020999e+00    3.573137e+00
  6.132128e+00    3.618280e+00
  6.243257e+00    3.630200e+00
  6.354386e+00    3.572992e+00
  6.465515e+00    3.562585e+00
  6.576644e+00    3.510377e+00
  6.687773e+00    3.526303e+00
  6.798902e+00    3.588911e+00
  6.910031e+00    3.610140e+00
  7.021160e+00    3.559405e+00
  7.132289e+00    3.523816e+00
  7.243418e+00    3.555407e+00
  7.354547e+00    3.458250e+00
  7.465676e+00    3.507333e+00
  7.576805e+00    3.506487e+00
  7.687934e+00    3.487185e+00
  7.799063e+00    3.488622e+00
  7.910192e+00    3.418583e+00
  8.021321e+00    3.443152e+00
  8.132450e+00    3.482102e+00
  8.243579e+00    3.456923e+00
  8.354708e+00    3.474404e+00
  8.465837e+00    3.340021e+00
  8.576966e+00    3.362260e+00
  8.688095e+00    3.346332e+00
  8.799224e+00    3.297624e+00
  8.910353e+00    3.382859e+00
  9.021482e+00    3.265298e+00
  9.132611e+00    3.258494e+00
  9.243740e+00    3.251427e+00
  9.354869e+00    3.219670e+00
  9.465998e+00    3.273591e+00
  9.577127e+00    3.225595e+00
  9.688256e+00    3.180660e+00
  9.799385e+00    3.133490e+00
  9.910514e+00    3.125129e+00
  1.002164e+01    3.193967e+00
  1.013277e+01    3.108446e+00
  1.024390e+01    3.041115e+00
  1.035503e+01    3.094546e+00
  1.046616e+01    3.024895e+00
  1.057729e+01    3.040081e+00
  1.068842e+01    2.996678e+00
  1.079955e+01    3.003808e+00
  1.091068e+01    2.895734e+00
  1.102180e+01    2.868207e+00
  1.113293e+01    2.878762e+00
  1.124406e+01    2.822029e+00
  1.135519e+01    2.850492e+00
  1.146632e+01    2.792158e+00
  1.157745e+01    2.765789e+00
  1.168858e+01    2.735839e+00
  1.179971e+01    2.739130e+00
  1.191084e+01    2.714678e+00
  1.202197e+01    2.732598e+00
  1.213309e+01    2.684006e+00
  1.224422e+01    2.709017e+00
  1.235535e+01    2.670065e+00
  1.246648e+01    2.704998e+00
  1.257761e+01    2.775987e+00
  1.268874e+01    2.837881e+00
  1.279987e+01    2.999182e+00
  1.291100e+01    3.647684e+00
  1.302213e+01    6.881636e+00
  1.313326e+01    1.495366e+01
  1.324438e+01    1.067358e+01
  1.335551e+01    4.446123e+00
  1.346664e+01    3.150484e+00
  1.357777e+01    2.771442e+00
  1.368890e+01    2.536363e+00
  1.380003e+01    2.487493e+00
  1.391116e+01    2.420903e+00
  1.402229e+01    2.348490e+00
  1.413342e+01    2.367642e+00
  1.424455e+01    2.280428e+00
  1.435568e+01    2.253786e+00
  1.446680e+01    2.237410e+00
  1.457793e+01    2.237378e+00
  1.468906e+01    2.195449e+00
  1.480019e+01    2.197579e+00
  1.491132e+01    2.270753e+00
  1.502245e+01    2.482359e+00
  1.513358e+01    3.800068e+00
  1.524471e+01    5.846555e+00
  1.535584e+01    3.780193e+00
  1.546697e+01    2.426510e+00
  1.557809e+01    2.125388e+00
  1.568922e+01    2.037854e+00
  1.580035e+01    1.952678e+00
  1.591148e+01    1.923876e+00
  1.602261e+01    1.882540e+00
  1.613374e+01    1.843161e+00
  1.624487e+01    1.811251e+00
  1.635600e+01    1.809473e+00
  1.646713e+01    1.737874e+00
  1.657826e+01    1.751172e+00
  1.668938e+01    1.701648e+00
  1.680051e+01    1.732370e+00
  1.691164e+01    1.662855e+00
  1.702277e+01    1.667200e+00
  1.713390e+01    1.617854e+00
  1.724503e+01    1.599661e+00
  1.735616e+01    1.612759e+00
  1.746729e+01    1.592061e+00
  1.757842e+01    1.582875e+00
  1.768955e+01    1.543184e+00
  1.780067e+01    1.518676e+00
  1.791180e+01    1.552580e+00
  1.802293e+01    1.525458e+00
  1.813406e+01    1.488008e+00
  1.824519e+01    1.465237e+00
  1.835632e+01    1.460966e+00
  1.846745e+01    1.456774e+00
  1.857858e+01    1.413712e+00
  1.868971e+01    1.435737e+00
  1.880084e+01    1.420813e+00
  1.891196e+01    1.369257e+00
  1.902309e+01    1.396536e+00
  1.913422e+01    1.370569e+00
  1.924535e+01    1.368234e+00
  1.935648e+01    1.330456e+00
  1.946761e+01    1.350237e+00
  1.957874e+01    1.324665e+00
  1.968987e+01    1.305151e+00
  1.980100e+01    1.296970e+00
  1.991213e+01    1.287482e+00
  2.002325e+01    1.279165e+00
  2.013438e+01    1.287966e+00
  2.024551e+01    1.276836e+00
  2.035664e+01    1.295105e+00
  2.046777e+01    1.246945e+00
  2.057890e+01    1.245765e+00
  2.069003e+01    1.237685e+00
  2.080116e+01    1.229154e+00
  2.091229e+01    1.236839e+00
  2.102342e+01    1.205779e+00
  2.113455e+01    1.241734e+00
  2.124567e+01    1.260030e+00
  2.135680e+01    1.251101e+00
  2.146793e+01    1.380713e+00
  2.157906e+01    1.611037e+00
  2.169019e+01    2.540630e+00
  2.180132e+01    5.990342e+00
  2.191245e+01    8.766724e+00
  2.202358e+01    3.615481e+00
  2.213471e+01    1.898397e+00
  2.224584e+01    1.389262e+00
  2.235696e+01    1.249911e+00
  2.246809e+01    1.162407e+00
  2.257922e+01    1.126557e+00
  2.269035e+01    1.074178e+00
  2.280148e+01    1.044678e+00
  2.291261e+01    1.045144e+00
  2.302374e+01    1.025161e+00
  2.313487e+01    1.017784e+00
  2.324600e+01    1.008690e+00
  2.335713e+01    9.787251e-01
  2.346825e+01    9.641752e-01
  2.357938e+01    9.621403e-01
  2.369051e+01    9.540631e-01
  2.380164e+01    9.181260e-01
  2.391277e+01    9.163619e-01
  2.402390e+01    9.003215e-01
  2.413503e+01    8.955020e-01
  2.424616e+01    8.866106e-01
  2.435729e+01    8.928788e-01
  2.446842e+01    8.957722e-01
  2.457954e+01    8.813449e-01
  2.469067e+01    8.915380e-01
  2.480180e+01    9.159792e-01
  2.491293e+01    8.838118e-01
  2.502406e+01    8.966264e-01
  2.513519e+01    8.964506e-01
  2.524632e+01    9.215151e-01
  2.535745e+01    9.681077e-01
  2.546858e+01    1.056375e+00
  2.557971e+01    1.173354e+00
  2.569083e+01    1.520824e+00
  2.580196e+01    2.902649e+00
  2.591309e+01    6.502696e+00
  2.602422e+01    5.179220e+00
  2.613535e+01    2.127570e+00
  2.624648e+01    1.345054e+00
  2.635761e+01    1.105831e+00
  2.646874e+01    1.043643e+00
  2.657987e+01    9.943783e-01
  2.669100e+01    9.820523e-01
  2.680212e+01    9.682841e-01
  2.691325e+01    1.022218e+00
  2.702438e+01    1.153446e+00
  2.713551e+01    1.758112e+00
  2.724664e+01    2.108412e+00
  2.735777e+01    1.267706e+00
  2.746890e+01    1.025813e+00
  2.758003e+01    9.243775e-01
  2.769116e+01    9.291264e-01
  2.780229e+01    8.822917e-01
  2.791342e+01    8.913838e-01
  2.802454e+01    9.171646e-01
  2.813567e+01    8.605120e-01
  2.824680e+01    8.400159e-01
  2.835793e+01    8.292779e-01
  2.846906e+01    8.666480e-01
  2.858019e+01    8.177949e-01
  2.869132e+01    8.306737e-01
  2.880245e+01    8.302360e-01
  2.891358e+01    8.421397e-01
  2.902471e+01    8.264276e-01
  2.913583e+01    8.221335e-01
  2.924696e+01    8.169658e-01
  2.935809e+01    8.179249e-01
  2.946922e+01    7.907937e-01
  2.958035e+01    8.129246e-01
  2.969148e+01    8.052534e-01
  2.980261e+01    8.081213e-01
  2.991374e+01    8.117164e-01
  3.002487e+01    8.061909e-01
  3.013600e+01    7.871630e-01
  3.024712e+01    7.623408e-01
  3.035825e+01    7.944185e-01
  3.046938e+01    8.018934e-01
  3.058051e+01    7.715717e-01
  3.069164e+01    7.951860e-01
  3.080277e+01    7.959914e-01
  3.091390e+01    7.721329e-01
  3.102503e+01    8.077337e-01
  3.113616e+01    7.998242e-01
  3.124729e+01    8.077900e-01
  3.135841e+01    8.171139e-01
  3.146954e+01    8.017655e-01
  3.158067e+01    8.765561e-01
  3.169180e+01    9.770730e-01
  3.180293e+01    1.463323e+00
  3.191406e+01    2.065931e+00
  3.202519e+01    1.304037e+00
  3.213632e+01    9.406747e-01
  3.224745e+01    8.458993e-01
  3.235858e+01    8.142616e-01
  3.246970e+01    7.824093e-01
  3.254908e+01    7.934032e-01

File: 2024-07-27_003_Ru-CGO-ex_Reaction_dwell_000023_data_000114.dat
# == pyFAI calibration ==
# Distance Sample to Detector: 0.4 m
# PONI: 9.750e-02, 1.135e-01 m
# Rotations: -0.000175 0.000000 -0.000000 rad
#
# == Fit2d calibration ==
# Distance Sample-beamCenter: 400.000 mm
# Center: x=1514.000, y=1300.000 pix
# Tilt: 0.010 deg  TiltPlanRot: 0.010 deg
#
# Detector Detector	 Spline= None	 PixelSize= 7.500e-05, 7.500e-05 m
#    Detector has a mask: False
#    Detector has a dark current: False
#    detector has a flat field: False
#
# Wavelength: 6.888e-11 m
# Mask applied: user provided
# Dark current applied: False
# Flat field applied: False
# Polarization factor: 0.99
# Normalization factor: 1.0
# --> /home/myspot/data/2024_07_Rosario/Ru-CGO-ex/2024-07-27_003_Ru-CGO-ex_Reaction_dwell_000023_data_000114.dat
#       q_nm^-1             I
  2.003187e-02    0.000000e+00
  1.311609e-01    2.875002e-02
  2.422899e-01    7.358242e-03
  3.534189e-01    4.742360e-02
  4.645479e-01    4.221410e-02
  5.756770e-01    6.644259e-02
  6.868060e-01    3.894211e-02
  7.979350e-01    1.521696e-01
  9.090640e-01    6.145446e-01
  1.020193e+00    1.291668e+00
  1.131322e+00    1.566867e+00
  1.242451e+00    2.325310e+00
  1.353580e+00    2.809131e+00
  1.464709e+00    3.029788e+00
  1.575838e+00    3.176592e+00
  1.686967e+00    3.132821e+00
  1.798096e+00    3.034444e+00
  1.909225e+00    3.022316e+00
  2.020354e+00    3.029415e+00
  2.131483e+00    3.040300e+00
  2.242612e+00    3.184074e+00
  2.353741e+00    3.140628e+00
  2.464870e+00    3.289967e+00
  2.575999e+00    3.133241e+00
  2.687128e+00    3.280342e+00
  2.798257e+00    3.296696e+00
  2.909386e+00    3.304680e+00
  3.020515e+00    3.170824e+00
  3.131644e+00    3.465585e+00
  3.242773e+00    3.292936e+00
  3.353902e+00    3.449367e+00
  3.465031e+00    3.405368e+00
  3.576160e+00    3.443196e+00
  3.687289e+00    3.454126e+00
  3.798418e+00    3.518465e+00
  3.909547e+00    3.603570e+00
  4.020676e+00    3.508845e+00
  4.131806e+00    3.548677e+00
  4.242935e+00    3.697005e+00
  4.354064e+00    3.467825e+00
  4.465193e+00    3.608934e+00
  4.576322e+00    3.603883e+00
  4.687451e+00    3.624660e+00
  4.798580e+00    3.544949e+00
  4.909709e+00    3.682480e+00
  5.020838e+00    3.662311e+00
  5.131967e+00    3.707257e+00
  5.243096e+00    3.659608e+00
  5.354225e+00    3.609626e+00
  5.465354e+00    3.594983e+00
  5.576483e+00    3.615319e+00
  5.687612e+00    3.538339e+00
  5.798741e+00    3.596712e+00
  5.909870e+00    3.600297e+00
  6.020999e+00    3.548263e+00
  6.132128e+00    3.633477e+00
  6.243257e+00    3.584596e+00
  6.354386e+00    3.641079e+00
  6.465515e+00    3.578247e+00
  6.576644e+00    3.523753e+00
  6.687773e+00    3.546590e+00
  6.798902e+00    3.481369e+00
  6.910031e+00    3.480346e+00
  7.021160e+00    3.566874e+00
  7.132289e+00    3.522199e+00
  7.243418e+00    3.503527e+00
  7.354547e+00    3.427618e+00
  7.465676e+00    3.471590e+00
  7.576805e+00    3.459732e+00
  7.687934e+00    3.416796e+00
  7.799063e+00    3.416529e+00
  7.910192e+00    3.448076e+00
  8.021321e+00    3.377185e+00
  8.132450e+00    3.471190e+00
  8.243579e+00    3.475744e+00
  8.354708e+00    3.321808e+00
  8.465837e+00    3.402735e+00
  8.576966e+00    3.352060e+00
  8.688095e+00    3.331353e+00
  8.799224e+00    3.290156e+00
  8.910353e+00    3.262156e+00
  9.021482e+00    3.299090e+00
  9.132611e+00    3.279940e+00
  9.243740e+00    3.208254e+00
  9.354869e+00    3.213012e+00
  9.465998e+00    3.160124e+00
  9.577127e+00    3.247149e+00
  9.688256e+00    3.172400e+00
  9.799385e+00    3.186959e+00
  9.910514e+00    3.100612e+00
  1.002164e+01    3.127258e+00
  1.013277e+01    3.099594e+00
  1.024390e+01    3.049519e+00
  1.035503e+01    3.054835e+00
  1.046616e+01    2.950760e+00
  1.057729e+01    3.003966e+00
  1.068842e+01    2.986223e+00
  1.079955e+01    2.906790e+00
  1.091068e+01    2.979949e+00
  1.102180e+01    2.950117e+00
  1.113293e+01    2.889392e+00
  1.124406e+01    2.880971e+00
  1.135519e+01    2.830670e+00
  1.146632e+01    2.785420e+00
  1.157745e+01    2.759930e+00
  1.168858e+01    2.826362e+00
  1.179971e+01    2.719301e+00
  1.191084e+01    2.755727e+00
  1.202197e+01    2.685240e+00
  1.213309e+01    2.655345e+00
  1.224422e+01    2.689518e+00
  1.235535e+01    2.691645e+00
  1.246648e+01    2.700175e+00
  1.257761e+01    2.801223e+00
  1.268874e+01    2.782956e+00
  1.279987e+01    2.930343e+00
  1.291100e+01    3.712192e+00
  1.302213e+01    6.717059e+00
  1.313326e+01    1.487620e+01
  1.324438e+01    1.072808e+01
  1.335551e+01    4.458680e+00
  1.346664e+01    3.128689e+00
  1.357777e+01    2.719558e+00
  1.368890e+01    2.584859e+00
  1.380003e+01    2.435385e+00
  1.391116e+01    2.372474e+00
  1.402229e+01    2.378971e+00
  1.413342e+01    2.294003e+00
  1.424455e+01    2.314031e+00
  1.435568e+01    2.291813e+00
  1.446680e+01    2.216023e+00
  1.457793e+01    2.239364e+00
  1.468906e+01    2.218726e+00
  1.480019e+01    2.201607e+00
  1.491132e+01    2.249166e+00
  1.502245e+01    2.495450e+00
  1.513358e+01    3.770369e+00
  1.524471e+01    5.725745e+00
  1.535584e+01    3.787874e+00
  1.546697e+01    2.470895e+00
  1.557809e+01    2.084718e+00
  1.568922e+01    1.994621e+00
  1.580035e+01    1.952916e+00
  1.591148e+01    1.901880e+00
  1.602261e+01    1.882646e+00
  1.613374e+01    1.859266e+00
  1.624487e+01    1.815330e+00
  1.635600e+01    1.774709e+00
  1.646713e+01    1.739541e+00
  1.657826e+01    1.753712e+00
  1.668938e+01    1.719783e+00
  1.680051e+01    1.703162e+00
  1.691164e+01    1.696038e+00
  1.702277e+01    1.671318e+00
  1.713390e+01    1.643008e+00
  1.724503e+01    1.612647e+00
  1.735616e+01    1.578024e+00
  1.746729e+01    1.627626e+00
  1.757842e+01    1.556874e+00
  1.768955e+01    1.592999e+00
  1.780067e+01    1.536165e+00
  1.791180e+01    1.537090e+00
  1.802293e+01    1.500162e+00
  1.813406e+01    1.508281e+00
  1.824519e+01    1.488668e+00
  1.835632e+01    1.459052e+00
  1.846745e+01    1.451920e+00
  1.857858e+01    1.422742e+00
  1.868971e+01    1.432923e+00
  1.880084e+01    1.393317e+00
  1.891196e+01    1.419744e+00
  1.902309e+01    1.410574e+00
  1.913422e+01    1.358073e+00
  1.924535e+01    1.380866e+00
  1.935648e+01    1.339561e+00
  1.946761e+01    1.337043e+00
  1.957874e+01    1.361869e+00
  1.968987e+01    1.311662e+00
  1.980100e+01    1.296738e+00
  1.991213e+01    1.298092e+00
  2.002325e+01    1.269659e+00
  2.013438e+01    1.267946e+00
  2.024551e+01    1.260180e+00
  2.035664e+01    1.251626e+00
  2.046777e+01    1.230931e+00
  2.057890e+01    1.228930e+00
  2.069003e+01    1.209717e+00
  2.080116e+01    1.224285e+00
  2.091229e+01    1.242363e+00
  2.102342e+01    1.229047e+00
  2.113455e+01    1.223181e+00
  2.124567e+01    1.254354e+00
  2.135680e+01    1.268893e+00
  2.146793e+01    1.398072e+00
  2.157906e+01    1.621808e+00
  2.169019e+01    2.495339e+00
  2.180132e+01    5.892735e+00
  2.191245e+01    8.789742e+00
  2.202358e+01    3.635178e+00
  2.213471e+01    1.849807e+00
  2.224584e+01    1.395314e+00
  2.235696e+01    1.249881e+00
  2.246809e+01    1.162743e+00
  2.257922e+01    1.153706e+00
  2.269035e+01    1.095229e+00
  2.280148e+01    1.075800e+00
  2.291261e+01    1.052483e+00
  2.302374e+01    1.024284e+00
  2.313487e+01    1.015064e+00
  2.324600e+01    1.011208e+00
  2.335713e+01    9.620415e-01
  2.346825e+01    9.667224e-01
  2.357938e+01    9.426725e-01
  2.369051e+01    9.432767e-01
  2.380164e+01    9.291245e-01
  2.391277e+01    9.349302e-01
  2.402390e+01    8.958910e-01
  2.413503e+01    9.017634e-01
  2.424616e+01    8.921866e-01
  2.435729e+01    9.061512e-01
  2.446842e+01    9.045653e-01
  2.457954e+01    8.919278e-01
  2.469067e+01    9.082658e-01
  2.480180e+01    8.931209e-01
  2.491293e+01    8.754353e-01
  2.502406e+01    8.993623e-01
  2.513519e+01    9.302089e-01
  2.524632e+01    9.447609e-01
  2.535745e+01    9.779599e-01
  2.546858e+01    1.049635e+00
  2.557971e+01    1.161551e+00
  2.569083e+01    1.519230e+00
  2.580196e+01    2.801244e+00
  2.591309e+01    6.360230e+00
  2.602422e+01    5.293272e+00
  2.613535e+01    2.150978e+00
  2.624648e+01    1.319456e+00
  2.635761e+01    1.101914e+00
  2.646874e+01    1.051329e+00
  2.657987e+01    1.007167e+00
  2.669100e+01    9.924088e-01
  2.680212e+01    9.817777e-01
  2.691325e+01    9.696643e-01
  2.702438e+01    1.135730e+00
  2.713551e+01    1.709399e+00
  2.724664e+01    2.067296e+00
  2.735777e+01    1.290260e+00
  2.746890e+01    9.847101e-01
  2.758003e+01    9.402777e-01
  2.769116e+01    9.054776e-01
  2.780229e+01    8.996707e-01
  2.791342e+01    8.698987e-01
  2.802454e+01    8.724723e-01
  2.813567e+01    8.546280e-01
  2.824680e+01    8.268796e-01
  2.835793e+01    8.621086e-01
  2.846906e+01    8.402711e-01
  2.858019e+01    8.345344e-01
  2.869132e+01    8.380025e-01
  2.880245e+01    8.367807e-01
  2.891358e+01    8.214669e-01
  2.902471e+01    8.110235e-01
  2.913583e+01    8.147960e-01
  2.924696e+01    8.310457e-01
  2.935809e+01    8.044955e-01
  2.946922e+01    8.081729e-01
  2.958035e+01    8.014337e-01
  2.969148e+01    7.987267e-01
  2.980261e+01    7.871646e-01
  2.991374e+01    7.946892e-01
  3.002487e+01    8.280367e-01
  3.013600e+01    7.743112e-01
  3.024712e+01    7.998657e-01
  3.035825e+01    7.964336e-01
  3.046938e+01    7.845598e-01
  3.058051e+01    7.812563e-01
  3.069164e+01    7.596462e-01
  3.080277e+01    7.767197e-01
  3.091390e+01    7.957948e-01
  3.102503e+01    7.829404e-01
  3.113616e+01    7.849984e-01
  3.124729e+01    8.099353e-01
  3.135841e+01    7.844672e-01
  3.146954e+01    8.489367e-01
  3.158067e+01    8.710709e-01
  3.169180e+01    1.009413e+00
  3.180293e+01    1.461764e+00
  3.191406e+01    2.080353e+00
  3.202519e+01    1.335449e+00
  3.213632e+01    9.528539e-01
  3.224745e+01    8.200605e-01
  3.235858e+01    8.106750e-01
  3.246970e+01    7.695019e-01
  3.254908e+01    7.812531e-01