Folder: myspot_2024_07/XRD/Reaction conditions (part 57)

File: 2024-07-27_003_Ru-CGO-ex_Reaction_dwell_000023_data_000142.dat
# == pyFAI calibration ==
# Distance Sample to Detector: 0.4 m
# PONI: 9.750e-02, 1.135e-01 m
# Rotations: -0.000175 0.000000 -0.000000 rad
#
# == Fit2d calibration ==
# Distance Sample-beamCenter: 400.000 mm
# Center: x=1514.000, y=1300.000 pix
# Tilt: 0.010 deg  TiltPlanRot: 0.010 deg
#
# Detector Detector	 Spline= None	 PixelSize= 7.500e-05, 7.500e-05 m
#    Detector has a mask: False
#    Detector has a dark current: False
#    detector has a flat field: False
#
# Wavelength: 6.888e-11 m
# Mask applied: user provided
# Dark current applied: False
# Flat field applied: False
# Polarization factor: 0.99
# Normalization factor: 1.0
# --> /home/myspot/data/2024_07_Rosario/Ru-CGO-ex/2024-07-27_003_Ru-CGO-ex_Reaction_dwell_000023_data_000142.dat
#       q_nm^-1             I
  2.003187e-02    7.712225e-02
  1.311609e-01    2.051313e-04
  2.422899e-01    2.203577e-02
  3.534189e-01    7.572415e-02
  4.645479e-01    4.343291e-02
  5.756770e-01    2.289034e-02
  6.868060e-01    1.883921e-02
  7.979350e-01    1.652303e-01
  9.090640e-01    6.467851e-01
  1.020193e+00    1.372583e+00
  1.131322e+00    1.694725e+00
  1.242451e+00    2.390875e+00
  1.353580e+00    2.927185e+00
  1.464709e+00    2.921520e+00
  1.575838e+00    3.299216e+00
  1.686967e+00    3.013634e+00
  1.798096e+00    3.202545e+00
  1.909225e+00    2.976802e+00
  2.020354e+00    3.040966e+00
  2.131483e+00    3.023670e+00
  2.242612e+00    3.121681e+00
  2.353741e+00    3.154895e+00
  2.464870e+00    3.204096e+00
  2.575999e+00    3.251799e+00
  2.687128e+00    3.288459e+00
  2.798257e+00    3.218779e+00
  2.909386e+00    3.358176e+00
  3.020515e+00    3.411034e+00
  3.131644e+00    3.316689e+00
  3.242773e+00    3.349103e+00
  3.353902e+00    3.422487e+00
  3.465031e+00    3.437262e+00
  3.576160e+00    3.438673e+00
  3.687289e+00    3.440270e+00
  3.798418e+00    3.562537e+00
  3.909547e+00    3.563015e+00
  4.020676e+00    3.502084e+00
  4.131806e+00    3.525224e+00
  4.242935e+00    3.722542e+00
  4.354064e+00    3.500495e+00
  4.465193e+00    3.612392e+00
  4.576322e+00    3.610488e+00
  4.687451e+00    3.661244e+00
  4.798580e+00    3.586456e+00
  4.909709e+00    3.549241e+00
  5.020838e+00    3.595761e+00
  5.131967e+00    3.624538e+00
  5.243096e+00    3.608059e+00
  5.354225e+00    3.665833e+00
  5.465354e+00    3.543587e+00
  5.576483e+00    3.565584e+00
  5.687612e+00    3.699709e+00
  5.798741e+00    3.561538e+00
  5.909870e+00    3.585380e+00
  6.020999e+00    3.469061e+00
  6.132128e+00    3.589879e+00
  6.243257e+00    3.578615e+00
  6.354386e+00    3.603340e+00
  6.465515e+00    3.519985e+00
  6.576644e+00    3.533617e+00
  6.687773e+00    3.600130e+00
  6.798902e+00    3.568726e+00
  6.910031e+00    3.572196e+00
  7.021160e+00    3.442103e+00
  7.132289e+00    3.521685e+00
  7.243418e+00    3.441432e+00
  7.354547e+00    3.489076e+00
  7.465676e+00    3.474395e+00
  7.576805e+00    3.476130e+00
  7.687934e+00    3.403208e+00
  7.799063e+00    3.436455e+00
  7.910192e+00    3.461253e+00
  8.021321e+00    3.370568e+00
  8.132450e+00    3.469446e+00
  8.243579e+00    3.436286e+00
  8.354708e+00    3.378544e+00
  8.465837e+00    3.369814e+00
  8.576966e+00    3.375154e+00
  8.688095e+00    3.375229e+00
  8.799224e+00    3.313032e+00
  8.910353e+00    3.301187e+00
  9.021482e+00    3.315409e+00
  9.132611e+00    3.204842e+00
  9.243740e+00    3.245297e+00
  9.354869e+00    3.201866e+00
  9.465998e+00    3.216121e+00
  9.577127e+00    3.319717e+00
  9.688256e+00    3.116288e+00
  9.799385e+00    3.125721e+00
  9.910514e+00    3.126439e+00
  1.002164e+01    3.129640e+00
  1.013277e+01    3.110822e+00
  1.024390e+01    3.062261e+00
  1.035503e+01    2.974630e+00
  1.046616e+01    3.016920e+00
  1.057729e+01    2.965124e+00
  1.068842e+01    2.970799e+00
  1.079955e+01    3.007560e+00
  1.091068e+01    2.934678e+00
  1.102180e+01    2.847500e+00
  1.113293e+01    2.862412e+00
  1.124406e+01    2.880301e+00
  1.135519e+01    2.800490e+00
  1.146632e+01    2.823022e+00
  1.157745e+01    2.750640e+00
  1.168858e+01    2.800185e+00
  1.179971e+01    2.709330e+00
  1.191084e+01    2.732339e+00
  1.202197e+01    2.702151e+00
  1.213309e+01    2.717453e+00
  1.224422e+01    2.740781e+00
  1.235535e+01    2.704448e+00
  1.246648e+01    2.700190e+00
  1.257761e+01    2.713063e+00
  1.268874e+01    2.836472e+00
  1.279987e+01    3.021493e+00
  1.291100e+01    3.667223e+00
  1.302213e+01    6.711879e+00
  1.313326e+01    1.476119e+01
  1.324438e+01    1.056082e+01
  1.335551e+01    4.386386e+00
  1.346664e+01    3.147163e+00
  1.357777e+01    2.714766e+00
  1.368890e+01    2.578944e+00
  1.380003e+01    2.422154e+00
  1.391116e+01    2.440100e+00
  1.402229e+01    2.402534e+00
  1.413342e+01    2.338193e+00
  1.424455e+01    2.269861e+00
  1.435568e+01    2.243506e+00
  1.446680e+01    2.197758e+00
  1.457793e+01    2.257906e+00
  1.468906e+01    2.203839e+00
  1.480019e+01    2.189062e+00
  1.491132e+01    2.232499e+00
  1.502245e+01    2.526169e+00
  1.513358e+01    3.768574e+00
  1.524471e+01    5.737103e+00
  1.535584e+01    3.738680e+00
  1.546697e+01    2.435336e+00
  1.557809e+01    2.105989e+00
  1.568922e+01    1.993018e+00
  1.580035e+01    1.944664e+00
  1.591148e+01    1.891960e+00
  1.602261e+01    1.865583e+00
  1.613374e+01    1.868357e+00
  1.624487e+01    1.813322e+00
  1.635600e+01    1.785960e+00
  1.646713e+01    1.752824e+00
  1.657826e+01    1.716159e+00
  1.668938e+01    1.717278e+00
  1.680051e+01    1.702359e+00
  1.691164e+01    1.665932e+00
  1.702277e+01    1.661108e+00
  1.713390e+01    1.640964e+00
  1.724503e+01    1.616899e+00
  1.735616e+01    1.569113e+00
  1.746729e+01    1.586633e+00
  1.757842e+01    1.560781e+00
  1.768955e+01    1.558425e+00
  1.780067e+01    1.523389e+00
  1.791180e+01    1.521856e+00
  1.802293e+01    1.505768e+00
  1.813406e+01    1.490300e+00
  1.824519e+01    1.461336e+00
  1.835632e+01    1.421099e+00
  1.846745e+01    1.410690e+00
  1.857858e+01    1.455849e+00
  1.868971e+01    1.432151e+00
  1.880084e+01    1.421633e+00
  1.891196e+01    1.370176e+00
  1.902309e+01    1.391765e+00
  1.913422e+01    1.357953e+00
  1.924535e+01    1.381976e+00
  1.935648e+01    1.354692e+00
  1.946761e+01    1.350297e+00
  1.957874e+01    1.312900e+00
  1.968987e+01    1.318890e+00
  1.980100e+01    1.308537e+00
  1.991213e+01    1.321724e+00
  2.002325e+01    1.290830e+00
  2.013438e+01    1.261211e+00
  2.024551e+01    1.230548e+00
  2.035664e+01    1.273232e+00
  2.046777e+01    1.202398e+00
  2.057890e+01    1.246617e+00
  2.069003e+01    1.234578e+00
  2.080116e+01    1.229201e+00
  2.091229e+01    1.212237e+00
  2.102342e+01    1.244042e+00
  2.113455e+01    1.209704e+00
  2.124567e+01    1.264558e+00
  2.135680e+01    1.258167e+00
  2.146793e+01    1.373270e+00
  2.157906e+01    1.610482e+00
  2.169019e+01    2.544136e+00
  2.180132e+01    5.880697e+00
  2.191245e+01    8.674155e+00
  2.202358e+01    3.638020e+00
  2.213471e+01    1.865364e+00
  2.224584e+01    1.410745e+00
  2.235696e+01    1.251741e+00
  2.246809e+01    1.161031e+00
  2.257922e+01    1.085672e+00
  2.269035e+01    1.086137e+00
  2.280148e+01    1.053774e+00
  2.291261e+01    1.046171e+00
  2.302374e+01    1.027664e+00
  2.313487e+01    1.004467e+00
  2.324600e+01    9.847875e-01
  2.335713e+01    9.872673e-01
  2.346825e+01    9.521242e-01
  2.357938e+01    9.756779e-01
  2.369051e+01    9.223759e-01
  2.380164e+01    9.239028e-01
  2.391277e+01    8.998718e-01
  2.402390e+01    8.977582e-01
  2.413503e+01    8.658589e-01
  2.424616e+01    8.758718e-01
  2.435729e+01    8.813314e-01
  2.446842e+01    9.087739e-01
  2.457954e+01    8.893764e-01
  2.469067e+01    9.145072e-01
  2.480180e+01    8.798391e-01
  2.491293e+01    8.801161e-01
  2.502406e+01    9.118839e-01
  2.513519e+01    8.916512e-01
  2.524632e+01    9.415777e-01
  2.535745e+01    9.790211e-01
  2.546858e+01    1.028583e+00
  2.557971e+01    1.143850e+00
  2.569083e+01    1.479048e+00
  2.580196e+01    2.839948e+00
  2.591309e+01    6.312646e+00
  2.602422e+01    5.231617e+00
  2.613535e+01    2.096431e+00
  2.624648e+01    1.331407e+00
  2.635761e+01    1.099703e+00
  2.646874e+01    1.019430e+00
  2.657987e+01    9.826192e-01
  2.669100e+01    9.828625e-01
  2.680212e+01    9.672607e-01
  2.691325e+01    1.012171e+00
  2.702438e+01    1.162462e+00
  2.713551e+01    1.758301e+00
  2.724664e+01    2.031472e+00
  2.735777e+01    1.300484e+00
  2.746890e+01    1.000745e+00
  2.758003e+01    9.312229e-01
  2.769116e+01    8.873735e-01
  2.780229e+01    8.866093e-01
  2.791342e+01    8.657952e-01
  2.802454e+01    8.811949e-01
  2.813567e+01    8.532997e-01
  2.824680e+01    8.475309e-01
  2.835793e+01    8.558540e-01
  2.846906e+01    8.347965e-01
  2.858019e+01    8.235769e-01
  2.869132e+01    8.151715e-01
  2.880245e+01    8.248909e-01
  2.891358e+01    7.976049e-01
  2.902471e+01    8.223464e-01
  2.913583e+01    8.153892e-01
  2.924696e+01    8.143368e-01
  2.935809e+01    8.026433e-01
  2.946922e+01    8.125049e-01
  2.958035e+01    8.180389e-01
  2.969148e+01    8.105272e-01
  2.980261e+01    8.064128e-01
  2.991374e+01    8.097749e-01
  3.002487e+01    8.268018e-01
  3.013600e+01    7.886376e-01
  3.024712e+01    7.845032e-01
  3.035825e+01    7.604706e-01
  3.046938e+01    7.721466e-01
  3.058051e+01    8.033643e-01
  3.069164e+01    7.917489e-01
  3.080277e+01    7.895308e-01
  3.091390e+01    7.837638e-01
  3.102503e+01    7.756578e-01
  3.113616e+01    7.847049e-01
  3.124729e+01    7.706475e-01
  3.135841e+01    7.911023e-01
  3.146954e+01    8.280900e-01
  3.158067e+01    8.625476e-01
  3.169180e+01    9.871189e-01
  3.180293e+01    1.446177e+00
  3.191406e+01    2.043309e+00
  3.202519e+01    1.313392e+00
  3.213632e+01    9.297934e-01
  3.224745e+01    8.530709e-01
  3.235858e+01    8.064423e-01
  3.246970e+01    7.726362e-01
  3.254908e+01    7.929878e-01

File: 2024-07-27_003_Ru-CGO-ex_Reaction_dwell_000023_data_000143.dat
# == pyFAI calibration ==
# Distance Sample to Detector: 0.4 m
# PONI: 9.750e-02, 1.135e-01 m
# Rotations: -0.000175 0.000000 -0.000000 rad
#
# == Fit2d calibration ==
# Distance Sample-beamCenter: 400.000 mm
# Center: x=1514.000, y=1300.000 pix
# Tilt: 0.010 deg  TiltPlanRot: 0.010 deg
#
# Detector Detector	 Spline= None	 PixelSize= 7.500e-05, 7.500e-05 m
#    Detector has a mask: False
#    Detector has a dark current: False
#    detector has a flat field: False
#
# Wavelength: 6.888e-11 m
# Mask applied: user provided
# Dark current applied: False
# Flat field applied: False
# Polarization factor: 0.99
# Normalization factor: 1.0
# --> /home/myspot/data/2024_07_Rosario/Ru-CGO-ex/2024-07-27_003_Ru-CGO-ex_Reaction_dwell_000023_data_000143.dat
#       q_nm^-1             I
  2.003187e-02    0.000000e+00
  1.311609e-01    7.399143e-02
  2.422899e-01    3.779578e-02
  3.534189e-01    0.000000e+00
  4.645479e-01    2.974090e-02
  5.756770e-01    4.891966e-02
  6.868060e-01    4.346965e-02
  7.979350e-01    1.187830e-01
  9.090640e-01    7.647449e-01
  1.020193e+00    1.251553e+00
  1.131322e+00    1.655204e+00
  1.242451e+00    2.518257e+00
  1.353580e+00    2.692096e+00
  1.464709e+00    3.085186e+00
  1.575838e+00    3.242071e+00
  1.686967e+00    3.023549e+00
  1.798096e+00    3.034588e+00
  1.909225e+00    2.950072e+00
  2.020354e+00    3.107062e+00
  2.131483e+00    3.023298e+00
  2.242612e+00    3.072309e+00
  2.353741e+00    3.073583e+00
  2.464870e+00    3.240464e+00
  2.575999e+00    3.263372e+00
  2.687128e+00    3.188866e+00
  2.798257e+00    3.219882e+00
  2.909386e+00    3.310119e+00
  3.020515e+00    3.377485e+00
  3.131644e+00    3.401431e+00
  3.242773e+00    3.348915e+00
  3.353902e+00    3.409537e+00
  3.465031e+00    3.464118e+00
  3.576160e+00    3.532003e+00
  3.687289e+00    3.461914e+00
  3.798418e+00    3.453322e+00
  3.909547e+00    3.514025e+00
  4.020676e+00    3.689332e+00
  4.131806e+00    3.551852e+00
  4.242935e+00    3.527433e+00
  4.354064e+00    3.438763e+00
  4.465193e+00    3.606414e+00
  4.576322e+00    3.584251e+00
  4.687451e+00    3.670548e+00
  4.798580e+00    3.583612e+00
  4.909709e+00    3.602445e+00
  5.020838e+00    3.615691e+00
  5.131967e+00    3.657524e+00
  5.243096e+00    3.641613e+00
  5.354225e+00    3.630999e+00
  5.465354e+00    3.636802e+00
  5.576483e+00    3.588528e+00
  5.687612e+00    3.597857e+00
  5.798741e+00    3.637782e+00
  5.909870e+00    3.465266e+00
  6.020999e+00    3.469207e+00
  6.132128e+00    3.547534e+00
  6.243257e+00    3.611061e+00
  6.354386e+00    3.510427e+00
  6.465515e+00    3.545376e+00
  6.576644e+00    3.534546e+00
  6.687773e+00    3.635018e+00
  6.798902e+00    3.498495e+00
  6.910031e+00    3.524986e+00
  7.021160e+00    3.602520e+00
  7.132289e+00    3.429814e+00
  7.243418e+00    3.555148e+00
  7.354547e+00    3.534147e+00
  7.465676e+00    3.451247e+00
  7.576805e+00    3.560429e+00
  7.687934e+00    3.412715e+00
  7.799063e+00    3.368283e+00
  7.910192e+00    3.399377e+00
  8.021321e+00    3.408739e+00
  8.132450e+00    3.412437e+00
  8.243579e+00    3.487291e+00
  8.354708e+00    3.422223e+00
  8.465837e+00    3.364301e+00
  8.576966e+00    3.329506e+00
  8.688095e+00    3.252488e+00
  8.799224e+00    3.295540e+00
  8.910353e+00    3.272942e+00
  9.021482e+00    3.283185e+00
  9.132611e+00    3.273217e+00
  9.243740e+00    3.212442e+00
  9.354869e+00    3.221642e+00
  9.465998e+00    3.214844e+00
  9.577127e+00    3.183206e+00
  9.688256e+00    3.220279e+00
  9.799385e+00    3.171803e+00
  9.910514e+00    3.111237e+00
  1.002164e+01    3.065761e+00
  1.013277e+01    3.114918e+00
  1.024390e+01    3.081664e+00
  1.035503e+01    3.054025e+00
  1.046616e+01    3.011624e+00
  1.057729e+01    2.947461e+00
  1.068842e+01    2.901924e+00
  1.079955e+01    2.934822e+00
  1.091068e+01    2.907822e+00
  1.102180e+01    2.912179e+00
  1.113293e+01    2.899876e+00
  1.124406e+01    2.864021e+00
  1.135519e+01    2.796158e+00
  1.146632e+01    2.829809e+00
  1.157745e+01    2.817127e+00
  1.168858e+01    2.760801e+00
  1.179971e+01    2.779969e+00
  1.191084e+01    2.691701e+00
  1.202197e+01    2.766527e+00
  1.213309e+01    2.697993e+00
  1.224422e+01    2.659400e+00
  1.235535e+01    2.670117e+00
  1.246648e+01    2.682204e+00
  1.257761e+01    2.736103e+00
  1.268874e+01    2.761560e+00
  1.279987e+01    3.007629e+00
  1.291100e+01    3.680704e+00
  1.302213e+01    6.740962e+00
  1.313326e+01    1.487584e+01
  1.324438e+01    1.056457e+01
  1.335551e+01    4.354385e+00
  1.346664e+01    3.105349e+00
  1.357777e+01    2.746247e+00
  1.368890e+01    2.561018e+00
  1.380003e+01    2.408926e+00
  1.391116e+01    2.409066e+00
  1.402229e+01    2.394779e+00
  1.413342e+01    2.293828e+00
  1.424455e+01    2.280906e+00
  1.435568e+01    2.255637e+00
  1.446680e+01    2.244068e+00
  1.457793e+01    2.188483e+00
  1.468906e+01    2.190647e+00
  1.480019e+01    2.157824e+00
  1.491132e+01    2.262895e+00
  1.502245e+01    2.569221e+00
  1.513358e+01    3.761586e+00
  1.524471e+01    5.708158e+00
  1.535584e+01    3.728867e+00
  1.546697e+01    2.470201e+00
  1.557809e+01    2.159243e+00
  1.568922e+01    1.993068e+00
  1.580035e+01    1.959996e+00
  1.591148e+01    1.937233e+00
  1.602261e+01    1.833779e+00
  1.613374e+01    1.829459e+00
  1.624487e+01    1.813043e+00
  1.635600e+01    1.820265e+00
  1.646713e+01    1.760976e+00
  1.657826e+01    1.753552e+00
  1.668938e+01    1.684160e+00
  1.680051e+01    1.706709e+00
  1.691164e+01    1.690421e+00
  1.702277e+01    1.683953e+00
  1.713390e+01    1.630288e+00
  1.724503e+01    1.604144e+00
  1.735616e+01    1.619189e+00
  1.746729e+01    1.593428e+00
  1.757842e+01    1.577610e+00
  1.768955e+01    1.564180e+00
  1.780067e+01    1.534236e+00
  1.791180e+01    1.539977e+00
  1.802293e+01    1.468850e+00
  1.813406e+01    1.512600e+00
  1.824519e+01    1.458930e+00
  1.835632e+01    1.444954e+00
  1.846745e+01    1.444304e+00
  1.857858e+01    1.421868e+00
  1.868971e+01    1.416181e+00
  1.880084e+01    1.418334e+00
  1.891196e+01    1.396839e+00
  1.902309e+01    1.370846e+00
  1.913422e+01    1.367560e+00
  1.924535e+01    1.370746e+00
  1.935648e+01    1.366765e+00
  1.946761e+01    1.340064e+00
  1.957874e+01    1.318231e+00
  1.968987e+01    1.297680e+00
  1.980100e+01    1.284436e+00
  1.991213e+01    1.271830e+00
  2.002325e+01    1.259486e+00
  2.013438e+01    1.280290e+00
  2.024551e+01    1.268710e+00
  2.035664e+01    1.239225e+00
  2.046777e+01    1.217026e+00
  2.057890e+01    1.211804e+00
  2.069003e+01    1.218507e+00
  2.080116e+01    1.231955e+00
  2.091229e+01    1.229638e+00
  2.102342e+01    1.207865e+00
  2.113455e+01    1.231881e+00
  2.124567e+01    1.238165e+00
  2.135680e+01    1.265137e+00
  2.146793e+01    1.378831e+00
  2.157906e+01    1.604419e+00
  2.169019e+01    2.517631e+00
  2.180132e+01    5.855265e+00
  2.191245e+01    8.693647e+00
  2.202358e+01    3.571054e+00
  2.213471e+01    1.877901e+00
  2.224584e+01    1.416123e+00
  2.235696e+01    1.231488e+00
  2.246809e+01    1.179170e+00
  2.257922e+01    1.105591e+00
  2.269035e+01    1.079691e+00
  2.280148e+01    1.073631e+00
  2.291261e+01    1.039532e+00
  2.302374e+01    1.004527e+00
  2.313487e+01    1.006222e+00
  2.324600e+01    1.000355e+00
  2.335713e+01    9.805648e-01
  2.346825e+01    9.846385e-01
  2.357938e+01    9.614629e-01
  2.369051e+01    9.553410e-01
  2.380164e+01    9.147317e-01
  2.391277e+01    8.836416e-01
  2.402390e+01    8.983374e-01
  2.413503e+01    8.815583e-01
  2.424616e+01    8.763446e-01
  2.435729e+01    8.778767e-01
  2.446842e+01    8.850126e-01
  2.457954e+01    8.894714e-01
  2.469067e+01    8.835019e-01
  2.480180e+01    8.729876e-01
  2.491293e+01    8.829556e-01
  2.502406e+01    8.981428e-01
  2.513519e+01    9.087086e-01
  2.524632e+01    9.328652e-01
  2.535745e+01    9.753813e-01
  2.546858e+01    1.003364e+00
  2.557971e+01    1.151412e+00
  2.569083e+01    1.481067e+00
  2.580196e+01    2.801202e+00
  2.591309e+01    6.304084e+00
  2.602422e+01    5.279408e+00
  2.613535e+01    2.136754e+00
  2.624648e+01    1.343469e+00
  2.635761e+01    1.118882e+00
  2.646874e+01    1.009054e+00
  2.657987e+01    9.755076e-01
  2.669100e+01    9.762606e-01
  2.680212e+01    9.747829e-01
  2.691325e+01    9.864363e-01
  2.702438e+01    1.131428e+00
  2.713551e+01    1.696074e+00
  2.724664e+01    2.068225e+00
  2.735777e+01    1.274406e+00
  2.746890e+01    9.927694e-01
  2.758003e+01    9.509357e-01
  2.769116e+01    8.964641e-01
  2.780229e+01    8.900538e-01
  2.791342e+01    9.009508e-01
  2.802454e+01    8.578530e-01
  2.813567e+01    8.333685e-01
  2.824680e+01    8.805963e-01
  2.835793e+01    8.566923e-01
  2.846906e+01    8.276696e-01
  2.858019e+01    8.293086e-01
  2.869132e+01    8.169146e-01
  2.880245e+01    8.308451e-01
  2.891358e+01    8.297890e-01
  2.902471e+01    8.244531e-01
  2.913583e+01    8.102602e-01
  2.924696e+01    7.961794e-01
  2.935809e+01    8.037683e-01
  2.946922e+01    7.974716e-01
  2.958035e+01    7.887237e-01
  2.969148e+01    7.972435e-01
  2.980261e+01    7.704635e-01
  2.991374e+01    7.866128e-01
  3.002487e+01    7.997116e-01
  3.013600e+01    8.079215e-01
  3.024712e+01    7.810363e-01
  3.035825e+01    7.923929e-01
  3.046938e+01    7.893503e-01
  3.058051e+01    7.809400e-01
  3.069164e+01    7.659855e-01
  3.080277e+01    8.204077e-01
  3.091390e+01    7.941676e-01
  3.102503e+01    7.626294e-01
  3.113616e+01    7.834345e-01
  3.124729e+01    7.816967e-01
  3.135841e+01    7.902038e-01
  3.146954e+01    8.231024e-01
  3.158067e+01    8.623238e-01
  3.169180e+01    9.857439e-01
  3.180293e+01    1.452189e+00
  3.191406e+01    2.071225e+00
  3.202519e+01    1.290408e+00
  3.213632e+01    9.279431e-01
  3.224745e+01    8.192580e-01
  3.235858e+01    7.982303e-01
  3.246970e+01    7.865074e-01
  3.254908e+01    7.837323e-01