Folder: myspot_2024_07/XRD/Reaction conditions (part 55)

File: 2024-07-27_003_Ru-CGO-ex_Reaction_dwell_000023_data_000138.dat
# == pyFAI calibration ==
# Distance Sample to Detector: 0.4 m
# PONI: 9.750e-02, 1.135e-01 m
# Rotations: -0.000175 0.000000 -0.000000 rad
#
# == Fit2d calibration ==
# Distance Sample-beamCenter: 400.000 mm
# Center: x=1514.000, y=1300.000 pix
# Tilt: 0.010 deg  TiltPlanRot: 0.010 deg
#
# Detector Detector	 Spline= None	 PixelSize= 7.500e-05, 7.500e-05 m
#    Detector has a mask: False
#    Detector has a dark current: False
#    detector has a flat field: False
#
# Wavelength: 6.888e-11 m
# Mask applied: user provided
# Dark current applied: False
# Flat field applied: False
# Polarization factor: 0.99
# Normalization factor: 1.0
# --> /home/myspot/data/2024_07_Rosario/Ru-CGO-ex/2024-07-27_003_Ru-CGO-ex_Reaction_dwell_000023_data_000138.dat
#       q_nm^-1             I
  2.003187e-02    0.000000e+00
  1.311609e-01    5.543765e-02
  2.422899e-01    2.985434e-02
  3.534189e-01    2.294182e-02
  4.645479e-01    4.522070e-02
  5.756770e-01    5.899037e-02
  6.868060e-01    3.808383e-02
  7.979350e-01    1.590506e-01
  9.090640e-01    6.023473e-01
  1.020193e+00    1.427432e+00
  1.131322e+00    1.641881e+00
  1.242451e+00    2.379859e+00
  1.353580e+00    2.737904e+00
  1.464709e+00    3.045089e+00
  1.575838e+00    3.087739e+00
  1.686967e+00    3.108356e+00
  1.798096e+00    3.165925e+00
  1.909225e+00    3.084764e+00
  2.020354e+00    3.042495e+00
  2.131483e+00    2.964309e+00
  2.242612e+00    3.173700e+00
  2.353741e+00    3.127476e+00
  2.464870e+00    3.108148e+00
  2.575999e+00    3.037366e+00
  2.687128e+00    3.236658e+00
  2.798257e+00    3.217716e+00
  2.909386e+00    3.160748e+00
  3.020515e+00    3.301877e+00
  3.131644e+00    3.373992e+00
  3.242773e+00    3.361016e+00
  3.353902e+00    3.336561e+00
  3.465031e+00    3.381191e+00
  3.576160e+00    3.480259e+00
  3.687289e+00    3.482767e+00
  3.798418e+00    3.445530e+00
  3.909547e+00    3.614496e+00
  4.020676e+00    3.571572e+00
  4.131806e+00    3.535947e+00
  4.242935e+00    3.524016e+00
  4.354064e+00    3.553785e+00
  4.465193e+00    3.545923e+00
  4.576322e+00    3.537355e+00
  4.687451e+00    3.626673e+00
  4.798580e+00    3.676792e+00
  4.909709e+00    3.617351e+00
  5.020838e+00    3.679357e+00
  5.131967e+00    3.727731e+00
  5.243096e+00    3.743817e+00
  5.354225e+00    3.694116e+00
  5.465354e+00    3.590581e+00
  5.576483e+00    3.600713e+00
  5.687612e+00    3.545916e+00
  5.798741e+00    3.517692e+00
  5.909870e+00    3.513294e+00
  6.020999e+00    3.507104e+00
  6.132128e+00    3.647738e+00
  6.243257e+00    3.655399e+00
  6.354386e+00    3.575487e+00
  6.465515e+00    3.553520e+00
  6.576644e+00    3.589780e+00
  6.687773e+00    3.592157e+00
  6.798902e+00    3.589151e+00
  6.910031e+00    3.556224e+00
  7.021160e+00    3.525766e+00
  7.132289e+00    3.486348e+00
  7.243418e+00    3.537365e+00
  7.354547e+00    3.539534e+00
  7.465676e+00    3.596235e+00
  7.576805e+00    3.520646e+00
  7.687934e+00    3.502326e+00
  7.799063e+00    3.478322e+00
  7.910192e+00    3.395476e+00
  8.021321e+00    3.407338e+00
  8.132450e+00    3.480470e+00
  8.243579e+00    3.477585e+00
  8.354708e+00    3.365974e+00
  8.465837e+00    3.363374e+00
  8.576966e+00    3.337111e+00
  8.688095e+00    3.246283e+00
  8.799224e+00    3.325115e+00
  8.910353e+00    3.310568e+00
  9.021482e+00    3.310276e+00
  9.132611e+00    3.303059e+00
  9.243740e+00    3.271562e+00
  9.354869e+00    3.271374e+00
  9.465998e+00    3.208462e+00
  9.577127e+00    3.167012e+00
  9.688256e+00    3.201046e+00
  9.799385e+00    3.091964e+00
  9.910514e+00    3.081566e+00
  1.002164e+01    3.040867e+00
  1.013277e+01    3.019056e+00
  1.024390e+01    3.118637e+00
  1.035503e+01    3.082250e+00
  1.046616e+01    2.981966e+00
  1.057729e+01    3.040438e+00
  1.068842e+01    2.963936e+00
  1.079955e+01    2.993791e+00
  1.091068e+01    2.964212e+00
  1.102180e+01    2.894453e+00
  1.113293e+01    2.903240e+00
  1.124406e+01    2.869523e+00
  1.135519e+01    2.820923e+00
  1.146632e+01    2.842673e+00
  1.157745e+01    2.810291e+00
  1.168858e+01    2.855746e+00
  1.179971e+01    2.735012e+00
  1.191084e+01    2.760978e+00
  1.202197e+01    2.746989e+00
  1.213309e+01    2.706352e+00
  1.224422e+01    2.713464e+00
  1.235535e+01    2.690459e+00
  1.246648e+01    2.703105e+00
  1.257761e+01    2.729527e+00
  1.268874e+01    2.847008e+00
  1.279987e+01    3.017004e+00
  1.291100e+01    3.608075e+00
  1.302213e+01    6.806464e+00
  1.313326e+01    1.492315e+01
  1.324438e+01    1.071803e+01
  1.335551e+01    4.452757e+00
  1.346664e+01    3.116163e+00
  1.357777e+01    2.726202e+00
  1.368890e+01    2.578788e+00
  1.380003e+01    2.472629e+00
  1.391116e+01    2.385999e+00
  1.402229e+01    2.356742e+00
  1.413342e+01    2.314486e+00
  1.424455e+01    2.280361e+00
  1.435568e+01    2.268952e+00
  1.446680e+01    2.201327e+00
  1.457793e+01    2.173117e+00
  1.468906e+01    2.160016e+00
  1.480019e+01    2.238836e+00
  1.491132e+01    2.273380e+00
  1.502245e+01    2.497573e+00
  1.513358e+01    3.837818e+00
  1.524471e+01    5.799325e+00
  1.535584e+01    3.774635e+00
  1.546697e+01    2.433625e+00
  1.557809e+01    2.123541e+00
  1.568922e+01    1.993272e+00
  1.580035e+01    1.963418e+00
  1.591148e+01    1.876621e+00
  1.602261e+01    1.843065e+00
  1.613374e+01    1.860849e+00
  1.624487e+01    1.793576e+00
  1.635600e+01    1.839574e+00
  1.646713e+01    1.784381e+00
  1.657826e+01    1.754640e+00
  1.668938e+01    1.711755e+00
  1.680051e+01    1.696180e+00
  1.691164e+01    1.675900e+00
  1.702277e+01    1.684930e+00
  1.713390e+01    1.686910e+00
  1.724503e+01    1.608404e+00
  1.735616e+01    1.623432e+00
  1.746729e+01    1.586164e+00
  1.757842e+01    1.563392e+00
  1.768955e+01    1.537022e+00
  1.780067e+01    1.517322e+00
  1.791180e+01    1.508797e+00
  1.802293e+01    1.480572e+00
  1.813406e+01    1.498705e+00
  1.824519e+01    1.467542e+00
  1.835632e+01    1.426652e+00
  1.846745e+01    1.492005e+00
  1.857858e+01    1.438341e+00
  1.868971e+01    1.420627e+00
  1.880084e+01    1.399146e+00
  1.891196e+01    1.372228e+00
  1.902309e+01    1.368005e+00
  1.913422e+01    1.344236e+00
  1.924535e+01    1.376001e+00
  1.935648e+01    1.356403e+00
  1.946761e+01    1.345025e+00
  1.957874e+01    1.322070e+00
  1.968987e+01    1.278504e+00
  1.980100e+01    1.320349e+00
  1.991213e+01    1.292980e+00
  2.002325e+01    1.302851e+00
  2.013438e+01    1.285619e+00
  2.024551e+01    1.272899e+00
  2.035664e+01    1.226259e+00
  2.046777e+01    1.233166e+00
  2.057890e+01    1.239905e+00
  2.069003e+01    1.230286e+00
  2.080116e+01    1.229476e+00
  2.091229e+01    1.228348e+00
  2.102342e+01    1.205848e+00
  2.113455e+01    1.198748e+00
  2.124567e+01    1.240520e+00
  2.135680e+01    1.293774e+00
  2.146793e+01    1.390252e+00
  2.157906e+01    1.625907e+00
  2.169019e+01    2.507503e+00
  2.180132e+01    5.875332e+00
  2.191245e+01    8.683309e+00
  2.202358e+01    3.626062e+00
  2.213471e+01    1.850643e+00
  2.224584e+01    1.399712e+00
  2.235696e+01    1.256086e+00
  2.246809e+01    1.148440e+00
  2.257922e+01    1.123417e+00
  2.269035e+01    1.089780e+00
  2.280148e+01    1.066600e+00
  2.291261e+01    1.018598e+00
  2.302374e+01    1.021978e+00
  2.313487e+01    1.011603e+00
  2.324600e+01    9.935356e-01
  2.335713e+01    9.842370e-01
  2.346825e+01    9.552601e-01
  2.357938e+01    9.492687e-01
  2.369051e+01    9.404909e-01
  2.380164e+01    9.146693e-01
  2.391277e+01    9.024899e-01
  2.402390e+01    8.936463e-01
  2.413503e+01    8.662958e-01
  2.424616e+01    8.843001e-01
  2.435729e+01    9.136652e-01
  2.446842e+01    8.925557e-01
  2.457954e+01    8.998470e-01
  2.469067e+01    9.060448e-01
  2.480180e+01    8.950785e-01
  2.491293e+01    9.024504e-01
  2.502406e+01    9.022104e-01
  2.513519e+01    9.127257e-01
  2.524632e+01    9.319959e-01
  2.535745e+01    9.658071e-01
  2.546858e+01    1.007688e+00
  2.557971e+01    1.161273e+00
  2.569083e+01    1.534425e+00
  2.580196e+01    2.779618e+00
  2.591309e+01    6.348330e+00
  2.602422e+01    5.276428e+00
  2.613535e+01    2.172941e+00
  2.624648e+01    1.352651e+00
  2.635761e+01    1.076914e+00
  2.646874e+01    1.028327e+00
  2.657987e+01    9.758413e-01
  2.669100e+01    9.822801e-01
  2.680212e+01    9.673014e-01
  2.691325e+01    1.011073e+00
  2.702438e+01    1.140982e+00
  2.713551e+01    1.719579e+00
  2.724664e+01    2.096933e+00
  2.735777e+01    1.295558e+00
  2.746890e+01    1.006070e+00
  2.758003e+01    9.241338e-01
  2.769116e+01    9.159126e-01
  2.780229e+01    8.862002e-01
  2.791342e+01    8.921229e-01
  2.802454e+01    8.780739e-01
  2.813567e+01    8.597274e-01
  2.824680e+01    8.571312e-01
  2.835793e+01    8.333888e-01
  2.846906e+01    8.327335e-01
  2.858019e+01    8.447105e-01
  2.869132e+01    8.244486e-01
  2.880245e+01    8.301375e-01
  2.891358e+01    8.249161e-01
  2.902471e+01    7.967191e-01
  2.913583e+01    8.144988e-01
  2.924696e+01    8.378066e-01
  2.935809e+01    8.093017e-01
  2.946922e+01    7.855082e-01
  2.958035e+01    8.059666e-01
  2.969148e+01    7.998772e-01
  2.980261e+01    7.878590e-01
  2.991374e+01    7.823077e-01
  3.002487e+01    8.147810e-01
  3.013600e+01    7.651893e-01
  3.024712e+01    7.754967e-01
  3.035825e+01    7.856829e-01
  3.046938e+01    7.865037e-01
  3.058051e+01    7.839803e-01
  3.069164e+01    7.595355e-01
  3.080277e+01    8.108426e-01
  3.091390e+01    7.709876e-01
  3.102503e+01    8.142660e-01
  3.113616e+01    7.866641e-01
  3.124729e+01    7.882819e-01
  3.135841e+01    7.955407e-01
  3.146954e+01    8.188869e-01
  3.158067e+01    8.732793e-01
  3.169180e+01    9.893054e-01
  3.180293e+01    1.471371e+00
  3.191406e+01    2.133580e+00
  3.202519e+01    1.323337e+00
  3.213632e+01    9.199597e-01
  3.224745e+01    8.367704e-01
  3.235858e+01    7.913317e-01
  3.246970e+01    7.573531e-01
  3.254908e+01    7.577115e-01

File: 2024-07-27_003_Ru-CGO-ex_Reaction_dwell_000023_data_000139.dat
# == pyFAI calibration ==
# Distance Sample to Detector: 0.4 m
# PONI: 9.750e-02, 1.135e-01 m
# Rotations: -0.000175 0.000000 -0.000000 rad
#
# == Fit2d calibration ==
# Distance Sample-beamCenter: 400.000 mm
# Center: x=1514.000, y=1300.000 pix
# Tilt: 0.010 deg  TiltPlanRot: 0.010 deg
#
# Detector Detector	 Spline= None	 PixelSize= 7.500e-05, 7.500e-05 m
#    Detector has a mask: False
#    Detector has a dark current: False
#    detector has a flat field: False
#
# Wavelength: 6.888e-11 m
# Mask applied: user provided
# Dark current applied: False
# Flat field applied: False
# Polarization factor: 0.99
# Normalization factor: 1.0
# --> /home/myspot/data/2024_07_Rosario/Ru-CGO-ex/2024-07-27_003_Ru-CGO-ex_Reaction_dwell_000023_data_000139.dat
#       q_nm^-1             I
  2.003187e-02    0.000000e+00
  1.311609e-01    4.974347e-02
  2.422899e-01    2.317875e-02
  3.534189e-01    5.558160e-02
  4.645479e-01    2.674897e-02
  5.756770e-01    4.946463e-02
  6.868060e-01    4.278355e-02
  7.979350e-01    1.332275e-01
  9.090640e-01    6.920713e-01
  1.020193e+00    1.353515e+00
  1.131322e+00    1.686834e+00
  1.242451e+00    2.373740e+00
  1.353580e+00    2.680903e+00
  1.464709e+00    2.953377e+00
  1.575838e+00    3.092942e+00
  1.686967e+00    3.014318e+00
  1.798096e+00    2.961946e+00
  1.909225e+00    3.103310e+00
  2.020354e+00    3.172982e+00
  2.131483e+00    3.111641e+00
  2.242612e+00    3.195068e+00
  2.353741e+00    3.204266e+00
  2.464870e+00    3.191104e+00
  2.575999e+00    3.300983e+00
  2.687128e+00    3.286819e+00
  2.798257e+00    3.308265e+00
  2.909386e+00    3.392430e+00
  3.020515e+00    3.272835e+00
  3.131644e+00    3.285348e+00
  3.242773e+00    3.422457e+00
  3.353902e+00    3.374453e+00
  3.465031e+00    3.342752e+00
  3.576160e+00    3.398253e+00
  3.687289e+00    3.476569e+00
  3.798418e+00    3.447131e+00
  3.909547e+00    3.431873e+00
  4.020676e+00    3.524176e+00
  4.131806e+00    3.615906e+00
  4.242935e+00    3.604037e+00
  4.354064e+00    3.684663e+00
  4.465193e+00    3.618654e+00
  4.576322e+00    3.595723e+00
  4.687451e+00    3.616663e+00
  4.798580e+00    3.611038e+00
  4.909709e+00    3.587510e+00
  5.020838e+00    3.623864e+00
  5.131967e+00    3.615610e+00
  5.243096e+00    3.709537e+00
  5.354225e+00    3.664742e+00
  5.465354e+00    3.565200e+00
  5.576483e+00    3.460268e+00
  5.687612e+00    3.658644e+00
  5.798741e+00    3.601899e+00
  5.909870e+00    3.581426e+00
  6.020999e+00    3.408973e+00
  6.132128e+00    3.599984e+00
  6.243257e+00    3.483368e+00
  6.354386e+00    3.537199e+00
  6.465515e+00    3.683307e+00
  6.576644e+00    3.526431e+00
  6.687773e+00    3.539333e+00
  6.798902e+00    3.495596e+00
  6.910031e+00    3.512452e+00
  7.021160e+00    3.436869e+00
  7.132289e+00    3.517961e+00
  7.243418e+00    3.577189e+00
  7.354547e+00    3.496571e+00
  7.465676e+00    3.467945e+00
  7.576805e+00    3.433285e+00
  7.687934e+00    3.407955e+00
  7.799063e+00    3.501464e+00
  7.910192e+00    3.435043e+00
  8.021321e+00    3.439887e+00
  8.132450e+00    3.514254e+00
  8.243579e+00    3.510500e+00
  8.354708e+00    3.373257e+00
  8.465837e+00    3.350501e+00
  8.576966e+00    3.310909e+00
  8.688095e+00    3.298048e+00
  8.799224e+00    3.313698e+00
  8.910353e+00    3.330301e+00
  9.021482e+00    3.309037e+00
  9.132611e+00    3.232956e+00
  9.243740e+00    3.227525e+00
  9.354869e+00    3.240354e+00
  9.465998e+00    3.200694e+00
  9.577127e+00    3.190327e+00
  9.688256e+00    3.131941e+00
  9.799385e+00    3.197397e+00
  9.910514e+00    3.077578e+00
  1.002164e+01    3.136728e+00
  1.013277e+01    3.056962e+00
  1.024390e+01    3.095979e+00
  1.035503e+01    3.087363e+00
  1.046616e+01    3.059742e+00
  1.057729e+01    3.051614e+00
  1.068842e+01    2.958404e+00
  1.079955e+01    2.985730e+00
  1.091068e+01    2.895717e+00
  1.102180e+01    2.916616e+00
  1.113293e+01    2.833722e+00
  1.124406e+01    2.900505e+00
  1.135519e+01    2.754285e+00
  1.146632e+01    2.768469e+00
  1.157745e+01    2.789822e+00
  1.168858e+01    2.772771e+00
  1.179971e+01    2.744373e+00
  1.191084e+01    2.736573e+00
  1.202197e+01    2.671721e+00
  1.213309e+01    2.689234e+00
  1.224422e+01    2.725565e+00
  1.235535e+01    2.626537e+00
  1.246648e+01    2.747888e+00
  1.257761e+01    2.779497e+00
  1.268874e+01    2.800206e+00
  1.279987e+01    2.980512e+00
  1.291100e+01    3.682518e+00
  1.302213e+01    6.719518e+00
  1.313326e+01    1.479801e+01
  1.324438e+01    1.065456e+01
  1.335551e+01    4.430964e+00
  1.346664e+01    3.125472e+00
  1.357777e+01    2.750841e+00
  1.368890e+01    2.620762e+00
  1.380003e+01    2.505268e+00
  1.391116e+01    2.414083e+00
  1.402229e+01    2.346165e+00
  1.413342e+01    2.312119e+00
  1.424455e+01    2.276458e+00
  1.435568e+01    2.268520e+00
  1.446680e+01    2.222499e+00
  1.457793e+01    2.192657e+00
  1.468906e+01    2.223146e+00
  1.480019e+01    2.213125e+00
  1.491132e+01    2.243585e+00
  1.502245e+01    2.501910e+00
  1.513358e+01    3.792547e+00
  1.524471e+01    5.770351e+00
  1.535584e+01    3.786217e+00
  1.546697e+01    2.471514e+00
  1.557809e+01    2.128664e+00
  1.568922e+01    2.018994e+00
  1.580035e+01    1.923430e+00
  1.591148e+01    1.926710e+00
  1.602261e+01    1.837486e+00
  1.613374e+01    1.853034e+00
  1.624487e+01    1.796086e+00
  1.635600e+01    1.829692e+00
  1.646713e+01    1.808745e+00
  1.657826e+01    1.753882e+00
  1.668938e+01    1.724432e+00
  1.680051e+01    1.671740e+00
  1.691164e+01    1.698490e+00
  1.702277e+01    1.702695e+00
  1.713390e+01    1.653768e+00
  1.724503e+01    1.601045e+00
  1.735616e+01    1.613210e+00
  1.746729e+01    1.575040e+00
  1.757842e+01    1.587536e+00
  1.768955e+01    1.574665e+00
  1.780067e+01    1.503645e+00
  1.791180e+01    1.527212e+00
  1.802293e+01    1.521848e+00
  1.813406e+01    1.499053e+00
  1.824519e+01    1.480285e+00
  1.835632e+01    1.446830e+00
  1.846745e+01    1.460139e+00
  1.857858e+01    1.423535e+00
  1.868971e+01    1.439973e+00
  1.880084e+01    1.393371e+00
  1.891196e+01    1.391846e+00
  1.902309e+01    1.397324e+00
  1.913422e+01    1.391540e+00
  1.924535e+01    1.360651e+00
  1.935648e+01    1.366383e+00
  1.946761e+01    1.355708e+00
  1.957874e+01    1.343155e+00
  1.968987e+01    1.316058e+00
  1.980100e+01    1.312213e+00
  1.991213e+01    1.292921e+00
  2.002325e+01    1.312969e+00
  2.013438e+01    1.250071e+00
  2.024551e+01    1.270749e+00
  2.035664e+01    1.267124e+00
  2.046777e+01    1.229108e+00
  2.057890e+01    1.252485e+00
  2.069003e+01    1.213643e+00
  2.080116e+01    1.258612e+00
  2.091229e+01    1.226482e+00
  2.102342e+01    1.201331e+00
  2.113455e+01    1.248645e+00
  2.124567e+01    1.246477e+00
  2.135680e+01    1.277138e+00
  2.146793e+01    1.377709e+00
  2.157906e+01    1.596490e+00
  2.169019e+01    2.513672e+00
  2.180132e+01    5.835534e+00
  2.191245e+01    8.743258e+00
  2.202358e+01    3.622175e+00
  2.213471e+01    1.865481e+00
  2.224584e+01    1.441478e+00
  2.235696e+01    1.245511e+00
  2.246809e+01    1.150248e+00
  2.257922e+01    1.133170e+00
  2.269035e+01    1.082537e+00
  2.280148e+01    1.059743e+00
  2.291261e+01    1.022408e+00
  2.302374e+01    1.040130e+00
  2.313487e+01    1.001331e+00
  2.324600e+01    1.014589e+00
  2.335713e+01    9.921749e-01
  2.346825e+01    9.729105e-01
  2.357938e+01    9.658033e-01
  2.369051e+01    9.383448e-01
  2.380164e+01    9.283658e-01
  2.391277e+01    9.239432e-01
  2.402390e+01    9.046140e-01
  2.413503e+01    8.769491e-01
  2.424616e+01    8.808318e-01
  2.435729e+01    8.951859e-01
  2.446842e+01    8.682652e-01
  2.457954e+01    9.116257e-01
  2.469067e+01    8.992430e-01
  2.480180e+01    9.000288e-01
  2.491293e+01    9.024690e-01
  2.502406e+01    8.899987e-01
  2.513519e+01    9.173027e-01
  2.524632e+01    9.311415e-01
  2.535745e+01    9.876035e-01
  2.546858e+01    1.021022e+00
  2.557971e+01    1.182417e+00
  2.569083e+01    1.495166e+00
  2.580196e+01    2.804032e+00
  2.591309e+01    6.309729e+00
  2.602422e+01    5.314366e+00
  2.613535e+01    2.136941e+00
  2.624648e+01    1.355205e+00
  2.635761e+01    1.110511e+00
  2.646874e+01    1.027200e+00
  2.657987e+01    1.000719e+00
  2.669100e+01    9.578799e-01
  2.680212e+01    9.894257e-01
  2.691325e+01    1.011186e+00
  2.702438e+01    1.158464e+00
  2.713551e+01    1.699294e+00
  2.724664e+01    2.103062e+00
  2.735777e+01    1.302121e+00
  2.746890e+01    1.014604e+00
  2.758003e+01    9.522243e-01
  2.769116e+01    9.007038e-01
  2.780229e+01    9.106358e-01
  2.791342e+01    8.624664e-01
  2.802454e+01    8.837247e-01
  2.813567e+01    8.842188e-01
  2.824680e+01    8.559092e-01
  2.835793e+01    8.542617e-01
  2.846906e+01    8.381729e-01
  2.858019e+01    8.449022e-01
  2.869132e+01    8.274989e-01
  2.880245e+01    8.466727e-01
  2.891358e+01    8.456123e-01
  2.902471e+01    8.297564e-01
  2.913583e+01    8.149703e-01
  2.924696e+01    8.131025e-01
  2.935809e+01    8.150246e-01
  2.946922e+01    8.004243e-01
  2.958035e+01    7.917998e-01
  2.969148e+01    8.108146e-01
  2.980261e+01    8.097342e-01
  2.991374e+01    7.902021e-01
  3.002487e+01    8.155413e-01
  3.013600e+01    7.923078e-01
  3.024712e+01    8.105140e-01
  3.035825e+01    7.852332e-01
  3.046938e+01    7.867708e-01
  3.058051e+01    7.695135e-01
  3.069164e+01    7.801347e-01
  3.080277e+01    7.825177e-01
  3.091390e+01    7.838833e-01
  3.102503e+01    7.816209e-01
  3.113616e+01    7.888635e-01
  3.124729e+01    7.829870e-01
  3.135841e+01    7.931146e-01
  3.146954e+01    8.201974e-01
  3.158067e+01    8.494802e-01
  3.169180e+01    1.001472e+00
  3.180293e+01    1.483053e+00
  3.191406e+01    2.083266e+00
  3.202519e+01    1.286220e+00
  3.213632e+01    9.306361e-01
  3.224745e+01    8.286434e-01
  3.235858e+01    8.037306e-01
  3.246970e+01    7.708638e-01
  3.254908e+01    7.800941e-01