Folder: myspot_2024_07/XRD/Reaction conditions (part 22)

File: 2024-07-27_003_Ru-CGO-ex_Reaction_dwell_000023_data_000057.dat
# == pyFAI calibration ==
# Distance Sample to Detector: 0.4 m
# PONI: 9.750e-02, 1.135e-01 m
# Rotations: -0.000175 0.000000 -0.000000 rad
#
# == Fit2d calibration ==
# Distance Sample-beamCenter: 400.000 mm
# Center: x=1514.000, y=1300.000 pix
# Tilt: 0.010 deg  TiltPlanRot: 0.010 deg
#
# Detector Detector	 Spline= None	 PixelSize= 7.500e-05, 7.500e-05 m
#    Detector has a mask: False
#    Detector has a dark current: False
#    detector has a flat field: False
#
# Wavelength: 6.888e-11 m
# Mask applied: user provided
# Dark current applied: False
# Flat field applied: False
# Polarization factor: 0.99
# Normalization factor: 1.0
# --> /home/myspot/data/2024_07_Rosario/Ru-CGO-ex/2024-07-27_003_Ru-CGO-ex_Reaction_dwell_000023_data_000057.dat
#       q_nm^-1             I
  2.003187e-02    0.000000e+00
  1.311609e-01    1.853034e-02
  2.422899e-01    3.286164e-02
  3.534189e-01    4.473517e-02
  4.645479e-01    4.462071e-02
  5.756770e-01    7.031187e-02
  6.868060e-01    3.977365e-02
  7.979350e-01    2.395000e-01
  9.090640e-01    6.766942e-01
  1.020193e+00    1.321459e+00
  1.131322e+00    1.539708e+00
  1.242451e+00    2.359588e+00
  1.353580e+00    2.782939e+00
  1.464709e+00    2.937434e+00
  1.575838e+00    3.099573e+00
  1.686967e+00    3.193519e+00
  1.798096e+00    3.078147e+00
  1.909225e+00    3.075978e+00
  2.020354e+00    2.894916e+00
  2.131483e+00    3.240380e+00
  2.242612e+00    3.105805e+00
  2.353741e+00    3.108928e+00
  2.464870e+00    3.206555e+00
  2.575999e+00    3.162570e+00
  2.687128e+00    3.270607e+00
  2.798257e+00    3.298974e+00
  2.909386e+00    3.243737e+00
  3.020515e+00    3.321518e+00
  3.131644e+00    3.436746e+00
  3.242773e+00    3.381090e+00
  3.353902e+00    3.344545e+00
  3.465031e+00    3.415611e+00
  3.576160e+00    3.503341e+00
  3.687289e+00    3.447123e+00
  3.798418e+00    3.591064e+00
  3.909547e+00    3.554123e+00
  4.020676e+00    3.556695e+00
  4.131806e+00    3.504706e+00
  4.242935e+00    3.499446e+00
  4.354064e+00    3.538513e+00
  4.465193e+00    3.456363e+00
  4.576322e+00    3.655185e+00
  4.687451e+00    3.571872e+00
  4.798580e+00    3.627935e+00
  4.909709e+00    3.620703e+00
  5.020838e+00    3.602060e+00
  5.131967e+00    3.700662e+00
  5.243096e+00    3.698374e+00
  5.354225e+00    3.705504e+00
  5.465354e+00    3.594358e+00
  5.576483e+00    3.664044e+00
  5.687612e+00    3.647011e+00
  5.798741e+00    3.730687e+00
  5.909870e+00    3.573031e+00
  6.020999e+00    3.583767e+00
  6.132128e+00    3.670547e+00
  6.243257e+00    3.628840e+00
  6.354386e+00    3.484532e+00
  6.465515e+00    3.576440e+00
  6.576644e+00    3.594262e+00
  6.687773e+00    3.512044e+00
  6.798902e+00    3.610913e+00
  6.910031e+00    3.524442e+00
  7.021160e+00    3.582866e+00
  7.132289e+00    3.506327e+00
  7.243418e+00    3.519415e+00
  7.354547e+00    3.557157e+00
  7.465676e+00    3.487184e+00
  7.576805e+00    3.483093e+00
  7.687934e+00    3.473585e+00
  7.799063e+00    3.442337e+00
  7.910192e+00    3.423613e+00
  8.021321e+00    3.413690e+00
  8.132450e+00    3.471524e+00
  8.243579e+00    3.490105e+00
  8.354708e+00    3.415379e+00
  8.465837e+00    3.391828e+00
  8.576966e+00    3.378093e+00
  8.688095e+00    3.309569e+00
  8.799224e+00    3.313769e+00
  8.910353e+00    3.317595e+00
  9.021482e+00    3.336076e+00
  9.132611e+00    3.306114e+00
  9.243740e+00    3.255870e+00
  9.354869e+00    3.263103e+00
  9.465998e+00    3.262377e+00
  9.577127e+00    3.211983e+00
  9.688256e+00    3.223330e+00
  9.799385e+00    3.202486e+00
  9.910514e+00    3.195329e+00
  1.002164e+01    3.186542e+00
  1.013277e+01    3.136227e+00
  1.024390e+01    3.072380e+00
  1.035503e+01    3.043452e+00
  1.046616e+01    3.012996e+00
  1.057729e+01    3.061364e+00
  1.068842e+01    3.021658e+00
  1.079955e+01    2.967232e+00
  1.091068e+01    2.953834e+00
  1.102180e+01    2.948616e+00
  1.113293e+01    2.907926e+00
  1.124406e+01    2.828067e+00
  1.135519e+01    2.838400e+00
  1.146632e+01    2.879940e+00
  1.157745e+01    2.828582e+00
  1.168858e+01    2.791060e+00
  1.179971e+01    2.793020e+00
  1.191084e+01    2.737235e+00
  1.202197e+01    2.702861e+00
  1.213309e+01    2.696611e+00
  1.224422e+01    2.674194e+00
  1.235535e+01    2.742223e+00
  1.246648e+01    2.739291e+00
  1.257761e+01    2.752268e+00
  1.268874e+01    2.860792e+00
  1.279987e+01    3.072594e+00
  1.291100e+01    3.645969e+00
  1.302213e+01    6.623809e+00
  1.313326e+01    1.470801e+01
  1.324438e+01    1.076858e+01
  1.335551e+01    4.497281e+00
  1.346664e+01    3.175185e+00
  1.357777e+01    2.776232e+00
  1.368890e+01    2.572797e+00
  1.380003e+01    2.487887e+00
  1.391116e+01    2.421312e+00
  1.402229e+01    2.345039e+00
  1.413342e+01    2.356479e+00
  1.424455e+01    2.282166e+00
  1.435568e+01    2.294658e+00
  1.446680e+01    2.242892e+00
  1.457793e+01    2.183891e+00
  1.468906e+01    2.214479e+00
  1.480019e+01    2.211208e+00
  1.491132e+01    2.259740e+00
  1.502245e+01    2.520470e+00
  1.513358e+01    3.742773e+00
  1.524471e+01    5.704814e+00
  1.535584e+01    3.834744e+00
  1.546697e+01    2.461251e+00
  1.557809e+01    2.102786e+00
  1.568922e+01    2.019341e+00
  1.580035e+01    1.967934e+00
  1.591148e+01    1.945262e+00
  1.602261e+01    1.842352e+00
  1.613374e+01    1.848146e+00
  1.624487e+01    1.842013e+00
  1.635600e+01    1.783635e+00
  1.646713e+01    1.772799e+00
  1.657826e+01    1.739819e+00
  1.668938e+01    1.725754e+00
  1.680051e+01    1.710790e+00
  1.691164e+01    1.689339e+00
  1.702277e+01    1.702507e+00
  1.713390e+01    1.646063e+00
  1.724503e+01    1.653483e+00
  1.735616e+01    1.622520e+00
  1.746729e+01    1.616590e+00
  1.757842e+01    1.595339e+00
  1.768955e+01    1.537887e+00
  1.780067e+01    1.516517e+00
  1.791180e+01    1.531483e+00
  1.802293e+01    1.511780e+00
  1.813406e+01    1.495059e+00
  1.824519e+01    1.501647e+00
  1.835632e+01    1.477907e+00
  1.846745e+01    1.453745e+00
  1.857858e+01    1.429562e+00
  1.868971e+01    1.394424e+00
  1.880084e+01    1.421859e+00
  1.891196e+01    1.381282e+00
  1.902309e+01    1.378417e+00
  1.913422e+01    1.376852e+00
  1.924535e+01    1.362332e+00
  1.935648e+01    1.324054e+00
  1.946761e+01    1.362458e+00
  1.957874e+01    1.317956e+00
  1.968987e+01    1.312976e+00
  1.980100e+01    1.321582e+00
  1.991213e+01    1.291555e+00
  2.002325e+01    1.280239e+00
  2.013438e+01    1.278265e+00
  2.024551e+01    1.299763e+00
  2.035664e+01    1.243724e+00
  2.046777e+01    1.228741e+00
  2.057890e+01    1.217618e+00
  2.069003e+01    1.249017e+00
  2.080116e+01    1.249237e+00
  2.091229e+01    1.229578e+00
  2.102342e+01    1.248160e+00
  2.113455e+01    1.244620e+00
  2.124567e+01    1.269649e+00
  2.135680e+01    1.287100e+00
  2.146793e+01    1.355249e+00
  2.157906e+01    1.625939e+00
  2.169019e+01    2.480656e+00
  2.180132e+01    5.814308e+00
  2.191245e+01    8.782779e+00
  2.202358e+01    3.666216e+00
  2.213471e+01    1.867526e+00
  2.224584e+01    1.408151e+00
  2.235696e+01    1.238998e+00
  2.246809e+01    1.149807e+00
  2.257922e+01    1.125474e+00
  2.269035e+01    1.093361e+00
  2.280148e+01    1.068675e+00
  2.291261e+01    1.026018e+00
  2.302374e+01    1.022994e+00
  2.313487e+01    9.931827e-01
  2.324600e+01    1.005480e+00
  2.335713e+01    9.810137e-01
  2.346825e+01    9.837262e-01
  2.357938e+01    9.457601e-01
  2.369051e+01    9.246668e-01
  2.380164e+01    9.423708e-01
  2.391277e+01    9.041488e-01
  2.402390e+01    9.104214e-01
  2.413503e+01    8.736229e-01
  2.424616e+01    8.900018e-01
  2.435729e+01    9.131105e-01
  2.446842e+01    9.039493e-01
  2.457954e+01    9.178008e-01
  2.469067e+01    9.091962e-01
  2.480180e+01    8.840615e-01
  2.491293e+01    8.989620e-01
  2.502406e+01    8.953732e-01
  2.513519e+01    9.042581e-01
  2.524632e+01    9.398499e-01
  2.535745e+01    9.841940e-01
  2.546858e+01    1.043416e+00
  2.557971e+01    1.157037e+00
  2.569083e+01    1.497373e+00
  2.580196e+01    2.780030e+00
  2.591309e+01    6.312001e+00
  2.602422e+01    5.319537e+00
  2.613535e+01    2.159146e+00
  2.624648e+01    1.343118e+00
  2.635761e+01    1.114561e+00
  2.646874e+01    1.010500e+00
  2.657987e+01    9.904867e-01
  2.669100e+01    9.633279e-01
  2.680212e+01    9.638648e-01
  2.691325e+01    1.018952e+00
  2.702438e+01    1.151083e+00
  2.713551e+01    1.706912e+00
  2.724664e+01    2.091062e+00
  2.735777e+01    1.277179e+00
  2.746890e+01    1.009130e+00
  2.758003e+01    9.361650e-01
  2.769116e+01    9.054393e-01
  2.780229e+01    9.014569e-01
  2.791342e+01    8.792958e-01
  2.802454e+01    8.740996e-01
  2.813567e+01    8.605722e-01
  2.824680e+01    8.457658e-01
  2.835793e+01    8.779498e-01
  2.846906e+01    8.143139e-01
  2.858019e+01    8.189172e-01
  2.869132e+01    8.245737e-01
  2.880245e+01    8.080287e-01
  2.891358e+01    8.291222e-01
  2.902471e+01    8.160794e-01
  2.913583e+01    8.069026e-01
  2.924696e+01    8.156555e-01
  2.935809e+01    8.265902e-01
  2.946922e+01    8.237467e-01
  2.958035e+01    7.973946e-01
  2.969148e+01    8.033063e-01
  2.980261e+01    7.995237e-01
  2.991374e+01    7.954640e-01
  3.002487e+01    8.373278e-01
  3.013600e+01    7.941651e-01
  3.024712e+01    7.991493e-01
  3.035825e+01    7.923449e-01
  3.046938e+01    7.772580e-01
  3.058051e+01    7.822340e-01
  3.069164e+01    8.048987e-01
  3.080277e+01    7.854314e-01
  3.091390e+01    7.966759e-01
  3.102503e+01    7.760576e-01
  3.113616e+01    7.931789e-01
  3.124729e+01    7.952456e-01
  3.135841e+01    7.916812e-01
  3.146954e+01    8.239223e-01
  3.158067e+01    8.484204e-01
  3.169180e+01    9.995211e-01
  3.180293e+01    1.444431e+00
  3.191406e+01    2.084384e+00
  3.202519e+01    1.332375e+00
  3.213632e+01    9.622580e-01
  3.224745e+01    8.268596e-01
  3.235858e+01    7.712154e-01
  3.246970e+01    7.768667e-01
  3.254908e+01    7.909076e-01

File: 2024-07-27_003_Ru-CGO-ex_Reaction_dwell_000023_data_000058.dat
# == pyFAI calibration ==
# Distance Sample to Detector: 0.4 m
# PONI: 9.750e-02, 1.135e-01 m
# Rotations: -0.000175 0.000000 -0.000000 rad
#
# == Fit2d calibration ==
# Distance Sample-beamCenter: 400.000 mm
# Center: x=1514.000, y=1300.000 pix
# Tilt: 0.010 deg  TiltPlanRot: 0.010 deg
#
# Detector Detector	 Spline= None	 PixelSize= 7.500e-05, 7.500e-05 m
#    Detector has a mask: False
#    Detector has a dark current: False
#    detector has a flat field: False
#
# Wavelength: 6.888e-11 m
# Mask applied: user provided
# Dark current applied: False
# Flat field applied: False
# Polarization factor: 0.99
# Normalization factor: 1.0
# --> /home/myspot/data/2024_07_Rosario/Ru-CGO-ex/2024-07-27_003_Ru-CGO-ex_Reaction_dwell_000023_data_000058.dat
#       q_nm^-1             I
  2.003187e-02    3.843212e-01
  1.311609e-01    5.800159e-02
  2.422899e-01    7.358242e-03
  3.534189e-01    3.974402e-02
  4.645479e-01    3.582577e-02
  5.756770e-01    5.076485e-02
  6.868060e-01    5.474755e-02
  7.979350e-01    1.389293e-01
  9.090640e-01    6.966930e-01
  1.020193e+00    1.342335e+00
  1.131322e+00    1.564218e+00
  1.242451e+00    2.281999e+00
  1.353580e+00    2.810667e+00
  1.464709e+00    3.086447e+00
  1.575838e+00    3.160304e+00
  1.686967e+00    3.055459e+00
  1.798096e+00    3.169387e+00
  1.909225e+00    3.065120e+00
  2.020354e+00    3.110756e+00
  2.131483e+00    3.175777e+00
  2.242612e+00    3.110492e+00
  2.353741e+00    3.079356e+00
  2.464870e+00    3.252529e+00
  2.575999e+00    3.201972e+00
  2.687128e+00    3.323905e+00
  2.798257e+00    3.342162e+00
  2.909386e+00    3.370017e+00
  3.020515e+00    3.289548e+00
  3.131644e+00    3.380991e+00
  3.242773e+00    3.363599e+00
  3.353902e+00    3.415075e+00
  3.465031e+00    3.480228e+00
  3.576160e+00    3.508427e+00
  3.687289e+00    3.544126e+00
  3.798418e+00    3.426421e+00
  3.909547e+00    3.541638e+00
  4.020676e+00    3.512119e+00
  4.131806e+00    3.588939e+00
  4.242935e+00    3.600092e+00
  4.354064e+00    3.554074e+00
  4.465193e+00    3.591648e+00
  4.576322e+00    3.547210e+00
  4.687451e+00    3.708784e+00
  4.798580e+00    3.605395e+00
  4.909709e+00    3.754449e+00
  5.020838e+00    3.676720e+00
  5.131967e+00    3.609731e+00
  5.243096e+00    3.653995e+00
  5.354225e+00    3.651612e+00
  5.465354e+00    3.608198e+00
  5.576483e+00    3.702570e+00
  5.687612e+00    3.605835e+00
  5.798741e+00    3.571451e+00
  5.909870e+00    3.573209e+00
  6.020999e+00    3.524679e+00
  6.132128e+00    3.649360e+00
  6.243257e+00    3.607041e+00
  6.354386e+00    3.595336e+00
  6.465515e+00    3.518059e+00
  6.576644e+00    3.516295e+00
  6.687773e+00    3.556630e+00
  6.798902e+00    3.584491e+00
  6.910031e+00    3.554633e+00
  7.021160e+00    3.474640e+00
  7.132289e+00    3.490370e+00
  7.243418e+00    3.497020e+00
  7.354547e+00    3.508346e+00
  7.465676e+00    3.490726e+00
  7.576805e+00    3.579800e+00
  7.687934e+00    3.520995e+00
  7.799063e+00    3.440165e+00
  7.910192e+00    3.491846e+00
  8.021321e+00    3.475565e+00
  8.132450e+00    3.448627e+00
  8.243579e+00    3.577015e+00
  8.354708e+00    3.400374e+00
  8.465837e+00    3.445571e+00
  8.576966e+00    3.402006e+00
  8.688095e+00    3.336874e+00
  8.799224e+00    3.346451e+00
  8.910353e+00    3.272728e+00
  9.021482e+00    3.316122e+00
  9.132611e+00    3.249398e+00
  9.243740e+00    3.231339e+00
  9.354869e+00    3.302850e+00
  9.465998e+00    3.210714e+00
  9.577127e+00    3.241601e+00
  9.688256e+00    3.181184e+00
  9.799385e+00    3.175236e+00
  9.910514e+00    3.125581e+00
  1.002164e+01    3.101694e+00
  1.013277e+01    3.175207e+00
  1.024390e+01    3.096143e+00
  1.035503e+01    3.013544e+00
  1.046616e+01    3.083278e+00
  1.057729e+01    3.061344e+00
  1.068842e+01    2.956227e+00
  1.079955e+01    2.912546e+00
  1.091068e+01    2.942062e+00
  1.102180e+01    2.913265e+00
  1.113293e+01    2.871805e+00
  1.124406e+01    2.830429e+00
  1.135519e+01    2.833391e+00
  1.146632e+01    2.813191e+00
  1.157745e+01    2.825874e+00
  1.168858e+01    2.786088e+00
  1.179971e+01    2.774973e+00
  1.191084e+01    2.796416e+00
  1.202197e+01    2.698316e+00
  1.213309e+01    2.711472e+00
  1.224422e+01    2.701530e+00
  1.235535e+01    2.672770e+00
  1.246648e+01    2.726309e+00
  1.257761e+01    2.741219e+00
  1.268874e+01    2.761237e+00
  1.279987e+01    3.053327e+00
  1.291100e+01    3.653790e+00
  1.302213e+01    6.722279e+00
  1.313326e+01    1.481069e+01
  1.324438e+01    1.070753e+01
  1.335551e+01    4.495850e+00
  1.346664e+01    3.083400e+00
  1.357777e+01    2.743574e+00
  1.368890e+01    2.565789e+00
  1.380003e+01    2.478509e+00
  1.391116e+01    2.435234e+00
  1.402229e+01    2.337704e+00
  1.413342e+01    2.360956e+00
  1.424455e+01    2.303486e+00
  1.435568e+01    2.253955e+00
  1.446680e+01    2.247086e+00
  1.457793e+01    2.232475e+00
  1.468906e+01    2.212378e+00
  1.480019e+01    2.208319e+00
  1.491132e+01    2.254589e+00
  1.502245e+01    2.539625e+00
  1.513358e+01    3.718105e+00
  1.524471e+01    5.801856e+00
  1.535584e+01    3.789556e+00
  1.546697e+01    2.448803e+00
  1.557809e+01    2.094914e+00
  1.568922e+01    2.024799e+00
  1.580035e+01    1.953543e+00
  1.591148e+01    1.935672e+00
  1.602261e+01    1.873867e+00
  1.613374e+01    1.852106e+00
  1.624487e+01    1.857206e+00
  1.635600e+01    1.796152e+00
  1.646713e+01    1.767224e+00
  1.657826e+01    1.776949e+00
  1.668938e+01    1.706254e+00
  1.680051e+01    1.705680e+00
  1.691164e+01    1.703685e+00
  1.702277e+01    1.686940e+00
  1.713390e+01    1.642593e+00
  1.724503e+01    1.631317e+00
  1.735616e+01    1.595701e+00
  1.746729e+01    1.615356e+00
  1.757842e+01    1.599914e+00
  1.768955e+01    1.585993e+00
  1.780067e+01    1.504597e+00
  1.791180e+01    1.560377e+00
  1.802293e+01    1.496919e+00
  1.813406e+01    1.475895e+00
  1.824519e+01    1.484283e+00
  1.835632e+01    1.471861e+00
  1.846745e+01    1.472879e+00
  1.857858e+01    1.438573e+00
  1.868971e+01    1.439428e+00
  1.880084e+01    1.413714e+00
  1.891196e+01    1.405643e+00
  1.902309e+01    1.404532e+00
  1.913422e+01    1.396844e+00
  1.924535e+01    1.395464e+00
  1.935648e+01    1.378689e+00
  1.946761e+01    1.341046e+00
  1.957874e+01    1.306314e+00
  1.968987e+01    1.334322e+00
  1.980100e+01    1.318756e+00
  1.991213e+01    1.307369e+00
  2.002325e+01    1.269634e+00
  2.013438e+01    1.271187e+00
  2.024551e+01    1.246023e+00
  2.035664e+01    1.265119e+00
  2.046777e+01    1.247068e+00
  2.057890e+01    1.265330e+00
  2.069003e+01    1.252848e+00
  2.080116e+01    1.211375e+00
  2.091229e+01    1.240158e+00
  2.102342e+01    1.234206e+00
  2.113455e+01    1.233680e+00
  2.124567e+01    1.264339e+00
  2.135680e+01    1.275529e+00
  2.146793e+01    1.357087e+00
  2.157906e+01    1.585457e+00
  2.169019e+01    2.511030e+00
  2.180132e+01    5.863792e+00
  2.191245e+01    8.753752e+00
  2.202358e+01    3.629488e+00
  2.213471e+01    1.857574e+00
  2.224584e+01    1.392482e+00
  2.235696e+01    1.256166e+00
  2.246809e+01    1.173982e+00
  2.257922e+01    1.135381e+00
  2.269035e+01    1.047788e+00
  2.280148e+01    1.061000e+00
  2.291261e+01    1.037459e+00
  2.302374e+01    1.023764e+00
  2.313487e+01    1.016500e+00
  2.324600e+01    1.002357e+00
  2.335713e+01    9.765838e-01
  2.346825e+01    9.783700e-01
  2.357938e+01    9.564110e-01
  2.369051e+01    9.121076e-01
  2.380164e+01    9.345694e-01
  2.391277e+01    9.057809e-01
  2.402390e+01    8.917635e-01
  2.413503e+01    8.739174e-01
  2.424616e+01    8.859422e-01
  2.435729e+01    9.031800e-01
  2.446842e+01    8.718163e-01
  2.457954e+01    8.825376e-01
  2.469067e+01    9.087104e-01
  2.480180e+01    8.999154e-01
  2.491293e+01    8.968694e-01
  2.502406e+01    9.087924e-01
  2.513519e+01    9.332121e-01
  2.524632e+01    9.269754e-01
  2.535745e+01    9.644953e-01
  2.546858e+01    1.032461e+00
  2.557971e+01    1.164687e+00
  2.569083e+01    1.499077e+00
  2.580196e+01    2.797880e+00
  2.591309e+01    6.366321e+00
  2.602422e+01    5.312386e+00
  2.613535e+01    2.131055e+00
  2.624648e+01    1.340973e+00
  2.635761e+01    1.110293e+00
  2.646874e+01    1.003536e+00
  2.657987e+01    9.914183e-01
  2.669100e+01    9.657992e-01
  2.680212e+01    9.887460e-01
  2.691325e+01    9.987082e-01
  2.702438e+01    1.156436e+00
  2.713551e+01    1.715060e+00
  2.724664e+01    2.107865e+00
  2.735777e+01    1.282976e+00
  2.746890e+01    1.020993e+00
  2.758003e+01    9.369825e-01
  2.769116e+01    9.215631e-01
  2.780229e+01    8.942984e-01
  2.791342e+01    8.823807e-01
  2.802454e+01    8.680625e-01
  2.813567e+01    8.577169e-01
  2.824680e+01    8.610331e-01
  2.835793e+01    8.702937e-01
  2.846906e+01    8.585586e-01
  2.858019e+01    8.531190e-01
  2.869132e+01    8.262885e-01
  2.880245e+01    8.416131e-01
  2.891358e+01    8.117474e-01
  2.902471e+01    8.384911e-01
  2.913583e+01    8.208945e-01
  2.924696e+01    8.193813e-01
  2.935809e+01    8.204678e-01
  2.946922e+01    7.933720e-01
  2.958035e+01    8.026152e-01
  2.969148e+01    7.855118e-01
  2.980261e+01    7.947007e-01
  2.991374e+01    7.899001e-01
  3.002487e+01    8.167909e-01
  3.013600e+01    7.879903e-01
  3.024712e+01    7.746487e-01
  3.035825e+01    7.986005e-01
  3.046938e+01    7.662303e-01
  3.058051e+01    7.857409e-01
  3.069164e+01    7.934631e-01
  3.080277e+01    7.851210e-01
  3.091390e+01    7.875755e-01
  3.102503e+01    7.747560e-01
  3.113616e+01    7.937925e-01
  3.124729e+01    8.153613e-01
  3.135841e+01    7.906402e-01
  3.146954e+01    7.870759e-01
  3.158067e+01    8.858948e-01
  3.169180e+01    9.785921e-01
  3.180293e+01    1.458319e+00
  3.191406e+01    2.081803e+00
  3.202519e+01    1.332118e+00
  3.213632e+01    9.464678e-01
  3.224745e+01    8.119877e-01
  3.235858e+01    7.795759e-01
  3.246970e+01    7.965747e-01
  3.254908e+01    7.761285e-01