Folder: myspot_2024_07/XRD/Reaction conditions (part 65)

File: 2024-07-27_003_Ru-CGO-ex_Reaction_dwell_000023_data_000160.dat
# == pyFAI calibration ==
# Distance Sample to Detector: 0.4 m
# PONI: 9.750e-02, 1.135e-01 m
# Rotations: -0.000175 0.000000 -0.000000 rad
#
# == Fit2d calibration ==
# Distance Sample-beamCenter: 400.000 mm
# Center: x=1514.000, y=1300.000 pix
# Tilt: 0.010 deg  TiltPlanRot: 0.010 deg
#
# Detector Detector	 Spline= None	 PixelSize= 7.500e-05, 7.500e-05 m
#    Detector has a mask: False
#    Detector has a dark current: False
#    detector has a flat field: False
#
# Wavelength: 6.888e-11 m
# Mask applied: user provided
# Dark current applied: False
# Flat field applied: False
# Polarization factor: 0.99
# Normalization factor: 1.0
# --> /home/myspot/data/2024_07_Rosario/Ru-CGO-ex/2024-07-27_003_Ru-CGO-ex_Reaction_dwell_000023_data_000160.dat
#       q_nm^-1             I
  2.003187e-02    0.000000e+00
  1.311609e-01    2.854345e-02
  2.422899e-01    5.417816e-02
  3.534189e-01    1.348392e-01
  4.645479e-01    9.134736e-02
  5.756770e-01    6.330368e-02
  6.868060e-01    6.668001e-02
  7.979350e-01    1.447523e-01
  9.090640e-01    6.555253e-01
  1.020193e+00    1.201475e+00
  1.131322e+00    1.575216e+00
  1.242451e+00    2.325537e+00
  1.353580e+00    2.726764e+00
  1.464709e+00    2.924164e+00
  1.575838e+00    3.179530e+00
  1.686967e+00    3.090328e+00
  1.798096e+00    3.023225e+00
  1.909225e+00    3.053791e+00
  2.020354e+00    3.090966e+00
  2.131483e+00    3.093949e+00
  2.242612e+00    3.057787e+00
  2.353741e+00    3.066267e+00
  2.464870e+00    3.264210e+00
  2.575999e+00    3.282105e+00
  2.687128e+00    3.177692e+00
  2.798257e+00    3.320354e+00
  2.909386e+00    3.336745e+00
  3.020515e+00    3.371620e+00
  3.131644e+00    3.280859e+00
  3.242773e+00    3.380713e+00
  3.353902e+00    3.397993e+00
  3.465031e+00    3.366925e+00
  3.576160e+00    3.412537e+00
  3.687289e+00    3.383257e+00
  3.798418e+00    3.484575e+00
  3.909547e+00    3.429955e+00
  4.020676e+00    3.511543e+00
  4.131806e+00    3.484048e+00
  4.242935e+00    3.551739e+00
  4.354064e+00    3.596600e+00
  4.465193e+00    3.522617e+00
  4.576322e+00    3.625223e+00
  4.687451e+00    3.565508e+00
  4.798580e+00    3.462920e+00
  4.909709e+00    3.617449e+00
  5.020838e+00    3.745197e+00
  5.131967e+00    3.584719e+00
  5.243096e+00    3.554308e+00
  5.354225e+00    3.689508e+00
  5.465354e+00    3.619194e+00
  5.576483e+00    3.471654e+00
  5.687612e+00    3.530673e+00
  5.798741e+00    3.600883e+00
  5.909870e+00    3.585449e+00
  6.020999e+00    3.546406e+00
  6.132128e+00    3.538845e+00
  6.243257e+00    3.532921e+00
  6.354386e+00    3.412547e+00
  6.465515e+00    3.538153e+00
  6.576644e+00    3.533432e+00
  6.687773e+00    3.455515e+00
  6.798902e+00    3.540310e+00
  6.910031e+00    3.573019e+00
  7.021160e+00    3.589980e+00
  7.132289e+00    3.517848e+00
  7.243418e+00    3.462744e+00
  7.354547e+00    3.483944e+00
  7.465676e+00    3.464971e+00
  7.576805e+00    3.422279e+00
  7.687934e+00    3.457434e+00
  7.799063e+00    3.445402e+00
  7.910192e+00    3.378241e+00
  8.021321e+00    3.408643e+00
  8.132450e+00    3.461776e+00
  8.243579e+00    3.462493e+00
  8.354708e+00    3.386284e+00
  8.465837e+00    3.299721e+00
  8.576966e+00    3.364805e+00
  8.688095e+00    3.294996e+00
  8.799224e+00    3.240909e+00
  8.910353e+00    3.211266e+00
  9.021482e+00    3.213900e+00
  9.132611e+00    3.283107e+00
  9.243740e+00    3.217521e+00
  9.354869e+00    3.237926e+00
  9.465998e+00    3.177781e+00
  9.577127e+00    3.233533e+00
  9.688256e+00    3.167672e+00
  9.799385e+00    3.163265e+00
  9.910514e+00    3.125054e+00
  1.002164e+01    3.099491e+00
  1.013277e+01    3.044917e+00
  1.024390e+01    3.059491e+00
  1.035503e+01    2.985456e+00
  1.046616e+01    3.062566e+00
  1.057729e+01    2.976736e+00
  1.068842e+01    2.988669e+00
  1.079955e+01    2.935110e+00
  1.091068e+01    2.926991e+00
  1.102180e+01    2.888577e+00
  1.113293e+01    2.846093e+00
  1.124406e+01    2.879590e+00
  1.135519e+01    2.797488e+00
  1.146632e+01    2.814499e+00
  1.157745e+01    2.766412e+00
  1.168858e+01    2.778627e+00
  1.179971e+01    2.739182e+00
  1.191084e+01    2.693403e+00
  1.202197e+01    2.696859e+00
  1.213309e+01    2.666372e+00
  1.224422e+01    2.665680e+00
  1.235535e+01    2.648524e+00
  1.246648e+01    2.724393e+00
  1.257761e+01    2.710141e+00
  1.268874e+01    2.787844e+00
  1.279987e+01    3.011061e+00
  1.291100e+01    3.633201e+00
  1.302213e+01    6.593878e+00
  1.313326e+01    1.462413e+01
  1.324438e+01    1.059523e+01
  1.335551e+01    4.450153e+00
  1.346664e+01    3.107572e+00
  1.357777e+01    2.695153e+00
  1.368890e+01    2.531984e+00
  1.380003e+01    2.463043e+00
  1.391116e+01    2.427759e+00
  1.402229e+01    2.341191e+00
  1.413342e+01    2.285038e+00
  1.424455e+01    2.232949e+00
  1.435568e+01    2.253630e+00
  1.446680e+01    2.229918e+00
  1.457793e+01    2.188286e+00
  1.468906e+01    2.209388e+00
  1.480019e+01    2.152879e+00
  1.491132e+01    2.218116e+00
  1.502245e+01    2.500650e+00
  1.513358e+01    3.772777e+00
  1.524471e+01    5.669013e+00
  1.535584e+01    3.735882e+00
  1.546697e+01    2.445159e+00
  1.557809e+01    2.115164e+00
  1.568922e+01    1.989769e+00
  1.580035e+01    1.926543e+00
  1.591148e+01    1.913262e+00
  1.602261e+01    1.875078e+00
  1.613374e+01    1.841979e+00
  1.624487e+01    1.793643e+00
  1.635600e+01    1.760016e+00
  1.646713e+01    1.749501e+00
  1.657826e+01    1.729147e+00
  1.668938e+01    1.762268e+00
  1.680051e+01    1.708152e+00
  1.691164e+01    1.669774e+00
  1.702277e+01    1.628806e+00
  1.713390e+01    1.644566e+00
  1.724503e+01    1.662369e+00
  1.735616e+01    1.602465e+00
  1.746729e+01    1.551486e+00
  1.757842e+01    1.551961e+00
  1.768955e+01    1.535048e+00
  1.780067e+01    1.510769e+00
  1.791180e+01    1.539359e+00
  1.802293e+01    1.483229e+00
  1.813406e+01    1.492762e+00
  1.824519e+01    1.478264e+00
  1.835632e+01    1.452957e+00
  1.846745e+01    1.421090e+00
  1.857858e+01    1.411869e+00
  1.868971e+01    1.392331e+00
  1.880084e+01    1.379045e+00
  1.891196e+01    1.399979e+00
  1.902309e+01    1.393105e+00
  1.913422e+01    1.347310e+00
  1.924535e+01    1.335165e+00
  1.935648e+01    1.328762e+00
  1.946761e+01    1.335394e+00
  1.957874e+01    1.310221e+00
  1.968987e+01    1.320178e+00
  1.980100e+01    1.303975e+00
  1.991213e+01    1.296775e+00
  2.002325e+01    1.266891e+00
  2.013438e+01    1.259901e+00
  2.024551e+01    1.271712e+00
  2.035664e+01    1.245307e+00
  2.046777e+01    1.198063e+00
  2.057890e+01    1.236475e+00
  2.069003e+01    1.233120e+00
  2.080116e+01    1.200079e+00
  2.091229e+01    1.236920e+00
  2.102342e+01    1.237501e+00
  2.113455e+01    1.239538e+00
  2.124567e+01    1.251392e+00
  2.135680e+01    1.279666e+00
  2.146793e+01    1.349999e+00
  2.157906e+01    1.596187e+00
  2.169019e+01    2.448464e+00
  2.180132e+01    5.761187e+00
  2.191245e+01    8.730933e+00
  2.202358e+01    3.624662e+00
  2.213471e+01    1.869384e+00
  2.224584e+01    1.431280e+00
  2.235696e+01    1.232539e+00
  2.246809e+01    1.133596e+00
  2.257922e+01    1.119014e+00
  2.269035e+01    1.080224e+00
  2.280148e+01    1.061126e+00
  2.291261e+01    1.020453e+00
  2.302374e+01    1.003816e+00
  2.313487e+01    1.021591e+00
  2.324600e+01    9.710408e-01
  2.335713e+01    9.703137e-01
  2.346825e+01    9.598258e-01
  2.357938e+01    9.670925e-01
  2.369051e+01    9.521496e-01
  2.380164e+01    9.319077e-01
  2.391277e+01    9.018348e-01
  2.402390e+01    8.947453e-01
  2.413503e+01    8.769004e-01
  2.424616e+01    8.708918e-01
  2.435729e+01    8.915780e-01
  2.446842e+01    8.923773e-01
  2.457954e+01    8.897851e-01
  2.469067e+01    9.017530e-01
  2.480180e+01    8.619019e-01
  2.491293e+01    8.872368e-01
  2.502406e+01    8.804411e-01
  2.513519e+01    9.042678e-01
  2.524632e+01    9.207040e-01
  2.535745e+01    9.700671e-01
  2.546858e+01    1.035212e+00
  2.557971e+01    1.150774e+00
  2.569083e+01    1.493338e+00
  2.580196e+01    2.740444e+00
  2.591309e+01    6.271240e+00
  2.602422e+01    5.274922e+00
  2.613535e+01    2.139874e+00
  2.624648e+01    1.333456e+00
  2.635761e+01    1.101400e+00
  2.646874e+01    1.024448e+00
  2.657987e+01    9.579235e-01
  2.669100e+01    9.651036e-01
  2.680212e+01    9.847074e-01
  2.691325e+01    1.000194e+00
  2.702438e+01    1.156840e+00
  2.713551e+01    1.713120e+00
  2.724664e+01    2.089195e+00
  2.735777e+01    1.282261e+00
  2.746890e+01    1.035191e+00
  2.758003e+01    9.367058e-01
  2.769116e+01    8.970975e-01
  2.780229e+01    8.819516e-01
  2.791342e+01    8.719823e-01
  2.802454e+01    8.714762e-01
  2.813567e+01    8.737757e-01
  2.824680e+01    8.690099e-01
  2.835793e+01    8.506480e-01
  2.846906e+01    8.521833e-01
  2.858019e+01    8.508456e-01
  2.869132e+01    8.313878e-01
  2.880245e+01    8.162020e-01
  2.891358e+01    8.175240e-01
  2.902471e+01    8.108540e-01
  2.913583e+01    8.204969e-01
  2.924696e+01    8.132372e-01
  2.935809e+01    8.094856e-01
  2.946922e+01    7.934601e-01
  2.958035e+01    8.041167e-01
  2.969148e+01    7.943885e-01
  2.980261e+01    8.020690e-01
  2.991374e+01    7.817083e-01
  3.002487e+01    7.966524e-01
  3.013600e+01    7.987646e-01
  3.024712e+01    7.769688e-01
  3.035825e+01    7.977269e-01
  3.046938e+01    7.658956e-01
  3.058051e+01    7.370775e-01
  3.069164e+01    7.696744e-01
  3.080277e+01    7.904540e-01
  3.091390e+01    7.900710e-01
  3.102503e+01    7.524986e-01
  3.113616e+01    7.713759e-01
  3.124729e+01    7.778370e-01
  3.135841e+01    7.836679e-01
  3.146954e+01    8.082739e-01
  3.158067e+01    8.683728e-01
  3.169180e+01    9.601929e-01
  3.180293e+01    1.442326e+00
  3.191406e+01    2.050931e+00
  3.202519e+01    1.319451e+00
  3.213632e+01    9.214678e-01
  3.224745e+01    8.566676e-01
  3.235858e+01    7.932976e-01
  3.246970e+01    7.825792e-01
  3.254908e+01    7.568893e-01

File: 2024-07-27_003_Ru-CGO-ex_Reaction_dwell_000023_data_000161.dat
# == pyFAI calibration ==
# Distance Sample to Detector: 0.4 m
# PONI: 9.750e-02, 1.135e-01 m
# Rotations: -0.000175 0.000000 -0.000000 rad
#
# == Fit2d calibration ==
# Distance Sample-beamCenter: 400.000 mm
# Center: x=1514.000, y=1300.000 pix
# Tilt: 0.010 deg  TiltPlanRot: 0.010 deg
#
# Detector Detector	 Spline= None	 PixelSize= 7.500e-05, 7.500e-05 m
#    Detector has a mask: False
#    Detector has a dark current: False
#    detector has a flat field: False
#
# Wavelength: 6.888e-11 m
# Mask applied: user provided
# Dark current applied: False
# Flat field applied: False
# Polarization factor: 0.99
# Normalization factor: 1.0
# --> /home/myspot/data/2024_07_Rosario/Ru-CGO-ex/2024-07-27_003_Ru-CGO-ex_Reaction_dwell_000023_data_000161.dat
#       q_nm^-1             I
  2.003187e-02    0.000000e+00
  1.311609e-01    5.413684e-02
  2.422899e-01    1.455680e-02
  3.534189e-01    3.508553e-02
  4.645479e-01    3.661542e-02
  5.756770e-01    3.522471e-02
  6.868060e-01    4.638333e-02
  7.979350e-01    1.872309e-01
  9.090640e-01    6.902003e-01
  1.020193e+00    1.274050e+00
  1.131322e+00    1.695930e+00
  1.242451e+00    2.342573e+00
  1.353580e+00    2.609891e+00
  1.464709e+00    2.994287e+00
  1.575838e+00    3.144901e+00
  1.686967e+00    3.123164e+00
  1.798096e+00    2.998914e+00
  1.909225e+00    2.912307e+00
  2.020354e+00    2.974010e+00
  2.131483e+00    3.089514e+00
  2.242612e+00    3.062668e+00
  2.353741e+00    3.042511e+00
  2.464870e+00    3.029682e+00
  2.575999e+00    3.151386e+00
  2.687128e+00    3.184872e+00
  2.798257e+00    3.272738e+00
  2.909386e+00    3.278059e+00
  3.020515e+00    3.220837e+00
  3.131644e+00    3.363535e+00
  3.242773e+00    3.472484e+00
  3.353902e+00    3.400177e+00
  3.465031e+00    3.335397e+00
  3.576160e+00    3.487452e+00
  3.687289e+00    3.526337e+00
  3.798418e+00    3.524110e+00
  3.909547e+00    3.505607e+00
  4.020676e+00    3.460124e+00
  4.131806e+00    3.586384e+00
  4.242935e+00    3.583702e+00
  4.354064e+00    3.505053e+00
  4.465193e+00    3.614663e+00
  4.576322e+00    3.566164e+00
  4.687451e+00    3.522567e+00
  4.798580e+00    3.581510e+00
  4.909709e+00    3.621011e+00
  5.020838e+00    3.539946e+00
  5.131967e+00    3.550928e+00
  5.243096e+00    3.602934e+00
  5.354225e+00    3.677762e+00
  5.465354e+00    3.513083e+00
  5.576483e+00    3.578995e+00
  5.687612e+00    3.521307e+00
  5.798741e+00    3.442954e+00
  5.909870e+00    3.411782e+00
  6.020999e+00    3.526157e+00
  6.132128e+00    3.611651e+00
  6.243257e+00    3.581595e+00
  6.354386e+00    3.542199e+00
  6.465515e+00    3.509668e+00
  6.576644e+00    3.533731e+00
  6.687773e+00    3.539426e+00
  6.798902e+00    3.551351e+00
  6.910031e+00    3.505870e+00
  7.021160e+00    3.513121e+00
  7.132289e+00    3.464891e+00
  7.243418e+00    3.488657e+00
  7.354547e+00    3.496155e+00
  7.465676e+00    3.521806e+00
  7.576805e+00    3.393060e+00
  7.687934e+00    3.420898e+00
  7.799063e+00    3.489411e+00
  7.910192e+00    3.410954e+00
  8.021321e+00    3.433402e+00
  8.132450e+00    3.419299e+00
  8.243579e+00    3.453305e+00
  8.354708e+00    3.381752e+00
  8.465837e+00    3.342393e+00
  8.576966e+00    3.290608e+00
  8.688095e+00    3.321174e+00
  8.799224e+00    3.347972e+00
  8.910353e+00    3.226398e+00
  9.021482e+00    3.243361e+00
  9.132611e+00    3.296821e+00
  9.243740e+00    3.285654e+00
  9.354869e+00    3.206406e+00
  9.465998e+00    3.212066e+00
  9.577127e+00    3.152423e+00
  9.688256e+00    3.116110e+00
  9.799385e+00    3.134514e+00
  9.910514e+00    3.123219e+00
  1.002164e+01    3.107509e+00
  1.013277e+01    3.029165e+00
  1.024390e+01    3.049214e+00
  1.035503e+01    3.050015e+00
  1.046616e+01    3.059824e+00
  1.057729e+01    2.951709e+00
  1.068842e+01    2.955137e+00
  1.079955e+01    3.014837e+00
  1.091068e+01    2.912246e+00
  1.102180e+01    2.914745e+00
  1.113293e+01    2.850265e+00
  1.124406e+01    2.817175e+00
  1.135519e+01    2.796171e+00
  1.146632e+01    2.769648e+00
  1.157745e+01    2.774837e+00
  1.168858e+01    2.821651e+00
  1.179971e+01    2.645960e+00
  1.191084e+01    2.733568e+00
  1.202197e+01    2.775354e+00
  1.213309e+01    2.678829e+00
  1.224422e+01    2.718742e+00
  1.235535e+01    2.674785e+00
  1.246648e+01    2.676886e+00
  1.257761e+01    2.710248e+00
  1.268874e+01    2.796138e+00
  1.279987e+01    2.995874e+00
  1.291100e+01    3.650867e+00
  1.302213e+01    6.627788e+00
  1.313326e+01    1.460970e+01
  1.324438e+01    1.064257e+01
  1.335551e+01    4.378841e+00
  1.346664e+01    3.070152e+00
  1.357777e+01    2.741185e+00
  1.368890e+01    2.525403e+00
  1.380003e+01    2.454235e+00
  1.391116e+01    2.416340e+00
  1.402229e+01    2.313517e+00
  1.413342e+01    2.356191e+00
  1.424455e+01    2.247645e+00
  1.435568e+01    2.254991e+00
  1.446680e+01    2.233882e+00
  1.457793e+01    2.200202e+00
  1.468906e+01    2.170966e+00
  1.480019e+01    2.213227e+00
  1.491132e+01    2.217340e+00
  1.502245e+01    2.553674e+00
  1.513358e+01    3.741762e+00
  1.524471e+01    5.670224e+00
  1.535584e+01    3.823274e+00
  1.546697e+01    2.382933e+00
  1.557809e+01    2.152085e+00
  1.568922e+01    1.973136e+00
  1.580035e+01    1.903141e+00
  1.591148e+01    1.871963e+00
  1.602261e+01    1.859062e+00
  1.613374e+01    1.824493e+00
  1.624487e+01    1.826296e+00
  1.635600e+01    1.788028e+00
  1.646713e+01    1.709090e+00
  1.657826e+01    1.718256e+00
  1.668938e+01    1.722559e+00
  1.680051e+01    1.722907e+00
  1.691164e+01    1.662538e+00
  1.702277e+01    1.679813e+00
  1.713390e+01    1.637429e+00
  1.724503e+01    1.620432e+00
  1.735616e+01    1.592301e+00
  1.746729e+01    1.585534e+00
  1.757842e+01    1.584437e+00
  1.768955e+01    1.520248e+00
  1.780067e+01    1.522459e+00
  1.791180e+01    1.491982e+00
  1.802293e+01    1.531302e+00
  1.813406e+01    1.501133e+00
  1.824519e+01    1.482474e+00
  1.835632e+01    1.424525e+00
  1.846745e+01    1.464679e+00
  1.857858e+01    1.423432e+00
  1.868971e+01    1.413761e+00
  1.880084e+01    1.415262e+00
  1.891196e+01    1.409073e+00
  1.902309e+01    1.376759e+00
  1.913422e+01    1.375218e+00
  1.924535e+01    1.365028e+00
  1.935648e+01    1.324357e+00
  1.946761e+01    1.370171e+00
  1.957874e+01    1.299270e+00
  1.968987e+01    1.289455e+00
  1.980100e+01    1.314214e+00
  1.991213e+01    1.285552e+00
  2.002325e+01    1.278332e+00
  2.013438e+01    1.284557e+00
  2.024551e+01    1.247513e+00
  2.035664e+01    1.218945e+00
  2.046777e+01    1.201286e+00
  2.057890e+01    1.240847e+00
  2.069003e+01    1.218742e+00
  2.080116e+01    1.199129e+00
  2.091229e+01    1.241004e+00
  2.102342e+01    1.206511e+00
  2.113455e+01    1.219728e+00
  2.124567e+01    1.214095e+00
  2.135680e+01    1.259276e+00
  2.146793e+01    1.346509e+00
  2.157906e+01    1.633183e+00
  2.169019e+01    2.469815e+00
  2.180132e+01    5.727481e+00
  2.191245e+01    8.641933e+00
  2.202358e+01    3.649887e+00
  2.213471e+01    1.818293e+00
  2.224584e+01    1.378930e+00
  2.235696e+01    1.241172e+00
  2.246809e+01    1.155640e+00
  2.257922e+01    1.107750e+00
  2.269035e+01    1.096450e+00
  2.280148e+01    1.037392e+00
  2.291261e+01    1.026210e+00
  2.302374e+01    1.006645e+00
  2.313487e+01    9.927126e-01
  2.324600e+01    9.888969e-01
  2.335713e+01    9.549594e-01
  2.346825e+01    9.684700e-01
  2.357938e+01    9.609488e-01
  2.369051e+01    9.412505e-01
  2.380164e+01    8.895257e-01
  2.391277e+01    9.220079e-01
  2.402390e+01    9.129993e-01
  2.413503e+01    9.073728e-01
  2.424616e+01    8.672369e-01
  2.435729e+01    8.790582e-01
  2.446842e+01    8.718228e-01
  2.457954e+01    8.636498e-01
  2.469067e+01    8.827929e-01
  2.480180e+01    8.785555e-01
  2.491293e+01    8.929826e-01
  2.502406e+01    8.826927e-01
  2.513519e+01    8.715301e-01
  2.524632e+01    9.095088e-01
  2.535745e+01    9.791667e-01
  2.546858e+01    1.005298e+00
  2.557971e+01    1.157779e+00
  2.569083e+01    1.470453e+00
  2.580196e+01    2.762685e+00
  2.591309e+01    6.192846e+00
  2.602422e+01    5.317827e+00
  2.613535e+01    2.161675e+00
  2.624648e+01    1.310466e+00
  2.635761e+01    1.068575e+00
  2.646874e+01    9.972105e-01
  2.657987e+01    9.752417e-01
  2.669100e+01    9.705461e-01
  2.680212e+01    9.515934e-01
  2.691325e+01    9.815336e-01
  2.702438e+01    1.124360e+00
  2.713551e+01    1.693490e+00
  2.724664e+01    2.102140e+00
  2.735777e+01    1.280153e+00
  2.746890e+01    1.022661e+00
  2.758003e+01    9.498824e-01
  2.769116e+01    9.019333e-01
  2.780229e+01    8.617044e-01
  2.791342e+01    8.829061e-01
  2.802454e+01    8.479932e-01
  2.813567e+01    8.573856e-01
  2.824680e+01    8.629883e-01
  2.835793e+01    8.444904e-01
  2.846906e+01    8.170493e-01
  2.858019e+01    8.255696e-01
  2.869132e+01    8.346950e-01
  2.880245e+01    8.194763e-01
  2.891358e+01    8.041673e-01
  2.902471e+01    8.114724e-01
  2.913583e+01    8.017146e-01
  2.924696e+01    8.059149e-01
  2.935809e+01    8.140282e-01
  2.946922e+01    7.817909e-01
  2.958035e+01    7.816064e-01
  2.969148e+01    7.895362e-01
  2.980261e+01    7.923506e-01
  2.991374e+01    7.810267e-01
  3.002487e+01    8.170930e-01
  3.013600e+01    7.926325e-01
  3.024712e+01    7.774948e-01
  3.035825e+01    7.725652e-01
  3.046938e+01    7.982286e-01
  3.058051e+01    7.567033e-01
  3.069164e+01    7.972713e-01
  3.080277e+01    7.944269e-01
  3.091390e+01    7.755044e-01
  3.102503e+01    7.637615e-01
  3.113616e+01    7.725892e-01
  3.124729e+01    7.851951e-01
  3.135841e+01    7.882250e-01
  3.146954e+01    8.349035e-01
  3.158067e+01    8.767672e-01
  3.169180e+01    9.686903e-01
  3.180293e+01    1.408854e+00
  3.191406e+01    2.066546e+00
  3.202519e+01    1.339847e+00
  3.213632e+01    9.078751e-01
  3.224745e+01    8.587933e-01
  3.235858e+01    7.966032e-01
  3.246970e+01    7.769065e-01
  3.254908e+01    7.614356e-01