Folder: myspot_2024_07/XRD/Reaction conditions (part 42)

File: 2024-07-27_003_Ru-CGO-ex_Reaction_dwell_000023_data_000108.dat
# == pyFAI calibration ==
# Distance Sample to Detector: 0.4 m
# PONI: 9.750e-02, 1.135e-01 m
# Rotations: -0.000175 0.000000 -0.000000 rad
#
# == Fit2d calibration ==
# Distance Sample-beamCenter: 400.000 mm
# Center: x=1514.000, y=1300.000 pix
# Tilt: 0.010 deg  TiltPlanRot: 0.010 deg
#
# Detector Detector	 Spline= None	 PixelSize= 7.500e-05, 7.500e-05 m
#    Detector has a mask: False
#    Detector has a dark current: False
#    detector has a flat field: False
#
# Wavelength: 6.888e-11 m
# Mask applied: user provided
# Dark current applied: False
# Flat field applied: False
# Polarization factor: 0.99
# Normalization factor: 1.0
# --> /home/myspot/data/2024_07_Rosario/Ru-CGO-ex/2024-07-27_003_Ru-CGO-ex_Reaction_dwell_000023_data_000108.dat
#       q_nm^-1             I
  2.003187e-02    0.000000e+00
  1.311609e-01    8.746651e-02
  2.422899e-01    2.396108e-02
  3.534189e-01    3.965241e-02
  4.645479e-01    3.605326e-02
  5.756770e-01    3.881949e-02
  6.868060e-01    3.988443e-02
  7.979350e-01    1.713994e-01
  9.090640e-01    6.078683e-01
  1.020193e+00    1.269426e+00
  1.131322e+00    1.622405e+00
  1.242451e+00    2.429582e+00
  1.353580e+00    2.712662e+00
  1.464709e+00    3.160324e+00
  1.575838e+00    3.176940e+00
  1.686967e+00    3.133518e+00
  1.798096e+00    3.016009e+00
  1.909225e+00    3.092424e+00
  2.020354e+00    3.098652e+00
  2.131483e+00    3.178876e+00
  2.242612e+00    3.043268e+00
  2.353741e+00    3.117174e+00
  2.464870e+00    3.087118e+00
  2.575999e+00    3.275004e+00
  2.687128e+00    3.391963e+00
  2.798257e+00    3.293353e+00
  2.909386e+00    3.337707e+00
  3.020515e+00    3.451031e+00
  3.131644e+00    3.328427e+00
  3.242773e+00    3.437846e+00
  3.353902e+00    3.383015e+00
  3.465031e+00    3.434908e+00
  3.576160e+00    3.431481e+00
  3.687289e+00    3.478958e+00
  3.798418e+00    3.479099e+00
  3.909547e+00    3.492048e+00
  4.020676e+00    3.443529e+00
  4.131806e+00    3.552652e+00
  4.242935e+00    3.551119e+00
  4.354064e+00    3.594110e+00
  4.465193e+00    3.559820e+00
  4.576322e+00    3.646743e+00
  4.687451e+00    3.696627e+00
  4.798580e+00    3.639212e+00
  4.909709e+00    3.564752e+00
  5.020838e+00    3.581010e+00
  5.131967e+00    3.617644e+00
  5.243096e+00    3.709635e+00
  5.354225e+00    3.663809e+00
  5.465354e+00    3.685300e+00
  5.576483e+00    3.679187e+00
  5.687612e+00    3.708438e+00
  5.798741e+00    3.661672e+00
  5.909870e+00    3.515547e+00
  6.020999e+00    3.520406e+00
  6.132128e+00    3.678065e+00
  6.243257e+00    3.601270e+00
  6.354386e+00    3.564531e+00
  6.465515e+00    3.526477e+00
  6.576644e+00    3.598251e+00
  6.687773e+00    3.581599e+00
  6.798902e+00    3.571877e+00
  6.910031e+00    3.523782e+00
  7.021160e+00    3.563753e+00
  7.132289e+00    3.567939e+00
  7.243418e+00    3.465749e+00
  7.354547e+00    3.542267e+00
  7.465676e+00    3.490956e+00
  7.576805e+00    3.526074e+00
  7.687934e+00    3.478471e+00
  7.799063e+00    3.469325e+00
  7.910192e+00    3.444060e+00
  8.021321e+00    3.446975e+00
  8.132450e+00    3.498980e+00
  8.243579e+00    3.498334e+00
  8.354708e+00    3.396578e+00
  8.465837e+00    3.333622e+00
  8.576966e+00    3.383098e+00
  8.688095e+00    3.357206e+00
  8.799224e+00    3.402982e+00
  8.910353e+00    3.310832e+00
  9.021482e+00    3.395033e+00
  9.132611e+00    3.276009e+00
  9.243740e+00    3.277801e+00
  9.354869e+00    3.250268e+00
  9.465998e+00    3.248332e+00
  9.577127e+00    3.292809e+00
  9.688256e+00    3.158245e+00
  9.799385e+00    3.170645e+00
  9.910514e+00    3.115882e+00
  1.002164e+01    3.145620e+00
  1.013277e+01    3.103838e+00
  1.024390e+01    3.067152e+00
  1.035503e+01    3.029311e+00
  1.046616e+01    3.068791e+00
  1.057729e+01    3.049765e+00
  1.068842e+01    2.986382e+00
  1.079955e+01    2.972860e+00
  1.091068e+01    2.936970e+00
  1.102180e+01    3.001688e+00
  1.113293e+01    2.915263e+00
  1.124406e+01    2.833709e+00
  1.135519e+01    2.839176e+00
  1.146632e+01    2.833329e+00
  1.157745e+01    2.773782e+00
  1.168858e+01    2.762302e+00
  1.179971e+01    2.768749e+00
  1.191084e+01    2.760050e+00
  1.202197e+01    2.735763e+00
  1.213309e+01    2.755862e+00
  1.224422e+01    2.704987e+00
  1.235535e+01    2.643844e+00
  1.246648e+01    2.719615e+00
  1.257761e+01    2.734802e+00
  1.268874e+01    2.842714e+00
  1.279987e+01    3.010841e+00
  1.291100e+01    3.688463e+00
  1.302213e+01    6.793119e+00
  1.313326e+01    1.494899e+01
  1.324438e+01    1.083995e+01
  1.335551e+01    4.426445e+00
  1.346664e+01    3.142726e+00
  1.357777e+01    2.737021e+00
  1.368890e+01    2.558218e+00
  1.380003e+01    2.492023e+00
  1.391116e+01    2.419023e+00
  1.402229e+01    2.363216e+00
  1.413342e+01    2.328254e+00
  1.424455e+01    2.285003e+00
  1.435568e+01    2.232275e+00
  1.446680e+01    2.233462e+00
  1.457793e+01    2.202050e+00
  1.468906e+01    2.210711e+00
  1.480019e+01    2.235790e+00
  1.491132e+01    2.267658e+00
  1.502245e+01    2.464766e+00
  1.513358e+01    3.880816e+00
  1.524471e+01    5.780788e+00
  1.535584e+01    3.758929e+00
  1.546697e+01    2.426788e+00
  1.557809e+01    2.168945e+00
  1.568922e+01    1.989575e+00
  1.580035e+01    1.938056e+00
  1.591148e+01    1.900600e+00
  1.602261e+01    1.869683e+00
  1.613374e+01    1.831430e+00
  1.624487e+01    1.829586e+00
  1.635600e+01    1.779299e+00
  1.646713e+01    1.796479e+00
  1.657826e+01    1.787387e+00
  1.668938e+01    1.740455e+00
  1.680051e+01    1.677979e+00
  1.691164e+01    1.692898e+00
  1.702277e+01    1.683739e+00
  1.713390e+01    1.654026e+00
  1.724503e+01    1.618872e+00
  1.735616e+01    1.607049e+00
  1.746729e+01    1.586375e+00
  1.757842e+01    1.568952e+00
  1.768955e+01    1.589906e+00
  1.780067e+01    1.521609e+00
  1.791180e+01    1.520297e+00
  1.802293e+01    1.521563e+00
  1.813406e+01    1.500238e+00
  1.824519e+01    1.468689e+00
  1.835632e+01    1.488257e+00
  1.846745e+01    1.429228e+00
  1.857858e+01    1.458244e+00
  1.868971e+01    1.419660e+00
  1.880084e+01    1.400422e+00
  1.891196e+01    1.402511e+00
  1.902309e+01    1.409742e+00
  1.913422e+01    1.384350e+00
  1.924535e+01    1.346563e+00
  1.935648e+01    1.367543e+00
  1.946761e+01    1.353276e+00
  1.957874e+01    1.328975e+00
  1.968987e+01    1.341047e+00
  1.980100e+01    1.313283e+00
  1.991213e+01    1.291041e+00
  2.002325e+01    1.290499e+00
  2.013438e+01    1.272804e+00
  2.024551e+01    1.272396e+00
  2.035664e+01    1.240476e+00
  2.046777e+01    1.253453e+00
  2.057890e+01    1.240287e+00
  2.069003e+01    1.232897e+00
  2.080116e+01    1.220775e+00
  2.091229e+01    1.226513e+00
  2.102342e+01    1.201298e+00
  2.113455e+01    1.239210e+00
  2.124567e+01    1.266522e+00
  2.135680e+01    1.294387e+00
  2.146793e+01    1.399921e+00
  2.157906e+01    1.608388e+00
  2.169019e+01    2.550352e+00
  2.180132e+01    5.876373e+00
  2.191245e+01    8.825511e+00
  2.202358e+01    3.647014e+00
  2.213471e+01    1.878358e+00
  2.224584e+01    1.417945e+00
  2.235696e+01    1.290742e+00
  2.246809e+01    1.178139e+00
  2.257922e+01    1.117561e+00
  2.269035e+01    1.101472e+00
  2.280148e+01    1.047602e+00
  2.291261e+01    1.035232e+00
  2.302374e+01    1.005655e+00
  2.313487e+01    9.928673e-01
  2.324600e+01    1.003225e+00
  2.335713e+01    9.852716e-01
  2.346825e+01    9.699789e-01
  2.357938e+01    9.711673e-01
  2.369051e+01    9.468347e-01
  2.380164e+01    9.241951e-01
  2.391277e+01    9.427517e-01
  2.402390e+01    9.146824e-01
  2.413503e+01    9.023291e-01
  2.424616e+01    8.819128e-01
  2.435729e+01    9.165674e-01
  2.446842e+01    8.885102e-01
  2.457954e+01    8.925739e-01
  2.469067e+01    9.054087e-01
  2.480180e+01    9.035149e-01
  2.491293e+01    8.901830e-01
  2.502406e+01    9.010888e-01
  2.513519e+01    9.274244e-01
  2.524632e+01    9.513720e-01
  2.535745e+01    9.685609e-01
  2.546858e+01    1.042418e+00
  2.557971e+01    1.185432e+00
  2.569083e+01    1.510867e+00
  2.580196e+01    2.831617e+00
  2.591309e+01    6.389482e+00
  2.602422e+01    5.272463e+00
  2.613535e+01    2.172899e+00
  2.624648e+01    1.353454e+00
  2.635761e+01    1.113784e+00
  2.646874e+01    1.024686e+00
  2.657987e+01    1.001493e+00
  2.669100e+01    9.838574e-01
  2.680212e+01    9.738376e-01
  2.691325e+01    1.006784e+00
  2.702438e+01    1.150020e+00
  2.713551e+01    1.722385e+00
  2.724664e+01    2.122703e+00
  2.735777e+01    1.291724e+00
  2.746890e+01    1.026516e+00
  2.758003e+01    9.567151e-01
  2.769116e+01    8.786604e-01
  2.780229e+01    8.882561e-01
  2.791342e+01    8.755949e-01
  2.802454e+01    8.734865e-01
  2.813567e+01    8.469653e-01
  2.824680e+01    8.503200e-01
  2.835793e+01    8.550714e-01
  2.846906e+01    8.255368e-01
  2.858019e+01    8.285104e-01
  2.869132e+01    8.331493e-01
  2.880245e+01    8.244615e-01
  2.891358e+01    8.489199e-01
  2.902471e+01    8.089572e-01
  2.913583e+01    8.184820e-01
  2.924696e+01    8.156695e-01
  2.935809e+01    8.124095e-01
  2.946922e+01    8.096880e-01
  2.958035e+01    8.046823e-01
  2.969148e+01    7.924508e-01
  2.980261e+01    7.952999e-01
  2.991374e+01    8.002063e-01
  3.002487e+01    8.028167e-01
  3.013600e+01    7.831461e-01
  3.024712e+01    7.877026e-01
  3.035825e+01    7.937986e-01
  3.046938e+01    7.899997e-01
  3.058051e+01    7.894512e-01
  3.069164e+01    7.814738e-01
  3.080277e+01    7.938846e-01
  3.091390e+01    7.932278e-01
  3.102503e+01    7.762908e-01
  3.113616e+01    7.864412e-01
  3.124729e+01    7.889423e-01
  3.135841e+01    8.000610e-01
  3.146954e+01    8.182060e-01
  3.158067e+01    8.579348e-01
  3.169180e+01    9.951130e-01
  3.180293e+01    1.470569e+00
  3.191406e+01    2.090809e+00
  3.202519e+01    1.316521e+00
  3.213632e+01    9.592143e-01
  3.224745e+01    8.379453e-01
  3.235858e+01    8.021401e-01
  3.246970e+01    8.096174e-01
  3.254908e+01    7.562506e-01

File: 2024-07-27_003_Ru-CGO-ex_Reaction_dwell_000023_data_000109.dat
# == pyFAI calibration ==
# Distance Sample to Detector: 0.4 m
# PONI: 9.750e-02, 1.135e-01 m
# Rotations: -0.000175 0.000000 -0.000000 rad
#
# == Fit2d calibration ==
# Distance Sample-beamCenter: 400.000 mm
# Center: x=1514.000, y=1300.000 pix
# Tilt: 0.010 deg  TiltPlanRot: 0.010 deg
#
# Detector Detector	 Spline= None	 PixelSize= 7.500e-05, 7.500e-05 m
#    Detector has a mask: False
#    Detector has a dark current: False
#    detector has a flat field: False
#
# Wavelength: 6.888e-11 m
# Mask applied: user provided
# Dark current applied: False
# Flat field applied: False
# Polarization factor: 0.99
# Normalization factor: 1.0
# --> /home/myspot/data/2024_07_Rosario/Ru-CGO-ex/2024-07-27_003_Ru-CGO-ex_Reaction_dwell_000023_data_000109.dat
#       q_nm^-1             I
  2.003187e-02    7.712225e-02
  1.311609e-01    7.755107e-02
  2.422899e-01    3.489761e-02
  3.534189e-01    1.500947e-02
  4.645479e-01    2.361181e-02
  5.756770e-01    4.277406e-02
  6.868060e-01    4.128529e-02
  7.979350e-01    1.828197e-01
  9.090640e-01    7.396750e-01
  1.020193e+00    1.314970e+00
  1.131322e+00    1.527126e+00
  1.242451e+00    2.333405e+00
  1.353580e+00    2.871037e+00
  1.464709e+00    3.131552e+00
  1.575838e+00    3.071882e+00
  1.686967e+00    3.115450e+00
  1.798096e+00    3.120636e+00
  1.909225e+00    3.131601e+00
  2.020354e+00    3.037064e+00
  2.131483e+00    2.972071e+00
  2.242612e+00    3.117308e+00
  2.353741e+00    3.114950e+00
  2.464870e+00    3.184890e+00
  2.575999e+00    3.162141e+00
  2.687128e+00    3.328917e+00
  2.798257e+00    3.218551e+00
  2.909386e+00    3.354692e+00
  3.020515e+00    3.364854e+00
  3.131644e+00    3.349874e+00
  3.242773e+00    3.390349e+00
  3.353902e+00    3.442364e+00
  3.465031e+00    3.415344e+00
  3.576160e+00    3.532840e+00
  3.687289e+00    3.444862e+00
  3.798418e+00    3.469341e+00
  3.909547e+00    3.585793e+00
  4.020676e+00    3.575765e+00
  4.131806e+00    3.489291e+00
  4.242935e+00    3.574146e+00
  4.354064e+00    3.575499e+00
  4.465193e+00    3.636748e+00
  4.576322e+00    3.676466e+00
  4.687451e+00    3.555640e+00
  4.798580e+00    3.611330e+00
  4.909709e+00    3.698958e+00
  5.020838e+00    3.739010e+00
  5.131967e+00    3.702236e+00
  5.243096e+00    3.706670e+00
  5.354225e+00    3.731808e+00
  5.465354e+00    3.665506e+00
  5.576483e+00    3.686890e+00
  5.687612e+00    3.635648e+00
  5.798741e+00    3.584606e+00
  5.909870e+00    3.541422e+00
  6.020999e+00    3.526289e+00
  6.132128e+00    3.465917e+00
  6.243257e+00    3.579705e+00
  6.354386e+00    3.540521e+00
  6.465515e+00    3.583847e+00
  6.576644e+00    3.548442e+00
  6.687773e+00    3.556149e+00
  6.798902e+00    3.609047e+00
  6.910031e+00    3.550501e+00
  7.021160e+00    3.514379e+00
  7.132289e+00    3.499611e+00
  7.243418e+00    3.551218e+00
  7.354547e+00    3.528968e+00
  7.465676e+00    3.616258e+00
  7.576805e+00    3.480814e+00
  7.687934e+00    3.478864e+00
  7.799063e+00    3.494432e+00
  7.910192e+00    3.416613e+00
  8.021321e+00    3.448599e+00
  8.132450e+00    3.459167e+00
  8.243579e+00    3.509536e+00
  8.354708e+00    3.465499e+00
  8.465837e+00    3.412039e+00
  8.576966e+00    3.355216e+00
  8.688095e+00    3.410941e+00
  8.799224e+00    3.383807e+00
  8.910353e+00    3.332411e+00
  9.021482e+00    3.239574e+00
  9.132611e+00    3.299587e+00
  9.243740e+00    3.267694e+00
  9.354869e+00    3.249138e+00
  9.465998e+00    3.248560e+00
  9.577127e+00    3.226311e+00
  9.688256e+00    3.151969e+00
  9.799385e+00    3.054490e+00
  9.910514e+00    3.109665e+00
  1.002164e+01    3.132746e+00
  1.013277e+01    3.120300e+00
  1.024390e+01    3.075870e+00
  1.035503e+01    3.056937e+00
  1.046616e+01    3.048729e+00
  1.057729e+01    3.004776e+00
  1.068842e+01    2.922317e+00
  1.079955e+01    2.952501e+00
  1.091068e+01    2.939927e+00
  1.102180e+01    2.905066e+00
  1.113293e+01    2.851247e+00
  1.124406e+01    2.847048e+00
  1.135519e+01    2.841061e+00
  1.146632e+01    2.763635e+00
  1.157745e+01    2.774674e+00
  1.168858e+01    2.811908e+00
  1.179971e+01    2.777283e+00
  1.191084e+01    2.750422e+00
  1.202197e+01    2.740718e+00
  1.213309e+01    2.740964e+00
  1.224422e+01    2.728230e+00
  1.235535e+01    2.755747e+00
  1.246648e+01    2.687452e+00
  1.257761e+01    2.741387e+00
  1.268874e+01    2.820751e+00
  1.279987e+01    3.080523e+00
  1.291100e+01    3.686555e+00
  1.302213e+01    6.750510e+00
  1.313326e+01    1.475973e+01
  1.324438e+01    1.076160e+01
  1.335551e+01    4.426820e+00
  1.346664e+01    3.143627e+00
  1.357777e+01    2.737802e+00
  1.368890e+01    2.617526e+00
  1.380003e+01    2.489775e+00
  1.391116e+01    2.420179e+00
  1.402229e+01    2.396815e+00
  1.413342e+01    2.328490e+00
  1.424455e+01    2.321779e+00
  1.435568e+01    2.256063e+00
  1.446680e+01    2.226970e+00
  1.457793e+01    2.226558e+00
  1.468906e+01    2.193803e+00
  1.480019e+01    2.211847e+00
  1.491132e+01    2.303627e+00
  1.502245e+01    2.527946e+00
  1.513358e+01    3.781944e+00
  1.524471e+01    5.803175e+00
  1.535584e+01    3.774629e+00
  1.546697e+01    2.415202e+00
  1.557809e+01    2.104554e+00
  1.568922e+01    2.006450e+00
  1.580035e+01    1.968997e+00
  1.591148e+01    1.904264e+00
  1.602261e+01    1.869737e+00
  1.613374e+01    1.903774e+00
  1.624487e+01    1.807051e+00
  1.635600e+01    1.789813e+00
  1.646713e+01    1.790979e+00
  1.657826e+01    1.750279e+00
  1.668938e+01    1.732371e+00
  1.680051e+01    1.710844e+00
  1.691164e+01    1.675587e+00
  1.702277e+01    1.701503e+00
  1.713390e+01    1.661101e+00
  1.724503e+01    1.627384e+00
  1.735616e+01    1.643338e+00
  1.746729e+01    1.633991e+00
  1.757842e+01    1.604129e+00
  1.768955e+01    1.555140e+00
  1.780067e+01    1.563799e+00
  1.791180e+01    1.526128e+00
  1.802293e+01    1.516152e+00
  1.813406e+01    1.505375e+00
  1.824519e+01    1.453111e+00
  1.835632e+01    1.486495e+00
  1.846745e+01    1.415511e+00
  1.857858e+01    1.442428e+00
  1.868971e+01    1.435887e+00
  1.880084e+01    1.443623e+00
  1.891196e+01    1.395226e+00
  1.902309e+01    1.391391e+00
  1.913422e+01    1.368730e+00
  1.924535e+01    1.338711e+00
  1.935648e+01    1.352863e+00
  1.946761e+01    1.330052e+00
  1.957874e+01    1.301362e+00
  1.968987e+01    1.305644e+00
  1.980100e+01    1.316164e+00
  1.991213e+01    1.314430e+00
  2.002325e+01    1.274317e+00
  2.013438e+01    1.280732e+00
  2.024551e+01    1.272587e+00
  2.035664e+01    1.249023e+00
  2.046777e+01    1.249581e+00
  2.057890e+01    1.222498e+00
  2.069003e+01    1.217204e+00
  2.080116e+01    1.229192e+00
  2.091229e+01    1.261874e+00
  2.102342e+01    1.205717e+00
  2.113455e+01    1.219033e+00
  2.124567e+01    1.261885e+00
  2.135680e+01    1.266527e+00
  2.146793e+01    1.375620e+00
  2.157906e+01    1.633669e+00
  2.169019e+01    2.479297e+00
  2.180132e+01    5.853657e+00
  2.191245e+01    8.825500e+00
  2.202358e+01    3.688734e+00
  2.213471e+01    1.884131e+00
  2.224584e+01    1.409992e+00
  2.235696e+01    1.250653e+00
  2.246809e+01    1.184098e+00
  2.257922e+01    1.090960e+00
  2.269035e+01    1.099960e+00
  2.280148e+01    1.061750e+00
  2.291261e+01    1.044518e+00
  2.302374e+01    1.020043e+00
  2.313487e+01    1.000817e+00
  2.324600e+01    9.825720e-01
  2.335713e+01    9.852952e-01
  2.346825e+01    9.584205e-01
  2.357938e+01    9.638418e-01
  2.369051e+01    9.418916e-01
  2.380164e+01    9.283964e-01
  2.391277e+01    9.076571e-01
  2.402390e+01    8.977581e-01
  2.413503e+01    8.759763e-01
  2.424616e+01    8.776168e-01
  2.435729e+01    8.896059e-01
  2.446842e+01    9.079846e-01
  2.457954e+01    9.130438e-01
  2.469067e+01    8.924262e-01
  2.480180e+01    8.974917e-01
  2.491293e+01    8.958113e-01
  2.502406e+01    8.999571e-01
  2.513519e+01    8.892546e-01
  2.524632e+01    9.327286e-01
  2.535745e+01    9.657589e-01
  2.546858e+01    1.036569e+00
  2.557971e+01    1.159001e+00
  2.569083e+01    1.529756e+00
  2.580196e+01    2.786471e+00
  2.591309e+01    6.396404e+00
  2.602422e+01    5.313891e+00
  2.613535e+01    2.178232e+00
  2.624648e+01    1.342424e+00
  2.635761e+01    1.104859e+00
  2.646874e+01    1.055471e+00
  2.657987e+01    9.865466e-01
  2.669100e+01    9.800968e-01
  2.680212e+01    9.860805e-01
  2.691325e+01    9.776205e-01
  2.702438e+01    1.142956e+00
  2.713551e+01    1.780296e+00
  2.724664e+01    2.125652e+00
  2.735777e+01    1.280204e+00
  2.746890e+01    1.028700e+00
  2.758003e+01    9.430065e-01
  2.769116e+01    9.129317e-01
  2.780229e+01    8.982227e-01
  2.791342e+01    8.486483e-01
  2.802454e+01    8.536276e-01
  2.813567e+01    8.594804e-01
  2.824680e+01    8.587143e-01
  2.835793e+01    8.477471e-01
  2.846906e+01    8.449304e-01
  2.858019e+01    8.508135e-01
  2.869132e+01    8.286799e-01
  2.880245e+01    8.414727e-01
  2.891358e+01    8.270777e-01
  2.902471e+01    8.157140e-01
  2.913583e+01    8.372232e-01
  2.924696e+01    8.131689e-01
  2.935809e+01    8.045329e-01
  2.946922e+01    8.098559e-01
  2.958035e+01    8.014737e-01
  2.969148e+01    7.850715e-01
  2.980261e+01    7.959846e-01
  2.991374e+01    8.015202e-01
  3.002487e+01    8.166032e-01
  3.013600e+01    7.903396e-01
  3.024712e+01    7.717328e-01
  3.035825e+01    7.681260e-01
  3.046938e+01    7.857345e-01
  3.058051e+01    8.102058e-01
  3.069164e+01    7.968029e-01
  3.080277e+01    7.874106e-01
  3.091390e+01    8.028098e-01
  3.102503e+01    7.957332e-01
  3.113616e+01    7.917663e-01
  3.124729e+01    7.970579e-01
  3.135841e+01    8.163433e-01
  3.146954e+01    8.339536e-01
  3.158067e+01    8.634343e-01
  3.169180e+01    9.736565e-01
  3.180293e+01    1.477280e+00
  3.191406e+01    2.113010e+00
  3.202519e+01    1.303022e+00
  3.213632e+01    9.415350e-01
  3.224745e+01    8.442041e-01
  3.235858e+01    8.060431e-01
  3.246970e+01    7.594694e-01
  3.254908e+01    7.731887e-01