Folder: myspot_2024_07/XRD/Reaction conditions (part 23)

File: 2024-07-27_003_Ru-CGO-ex_Reaction_dwell_000023_data_000059.dat
# == pyFAI calibration ==
# Distance Sample to Detector: 0.4 m
# PONI: 9.750e-02, 1.135e-01 m
# Rotations: -0.000175 0.000000 -0.000000 rad
#
# == Fit2d calibration ==
# Distance Sample-beamCenter: 400.000 mm
# Center: x=1514.000, y=1300.000 pix
# Tilt: 0.010 deg  TiltPlanRot: 0.010 deg
#
# Detector Detector	 Spline= None	 PixelSize= 7.500e-05, 7.500e-05 m
#    Detector has a mask: False
#    Detector has a dark current: False
#    detector has a flat field: False
#
# Wavelength: 6.888e-11 m
# Mask applied: user provided
# Dark current applied: False
# Flat field applied: False
# Polarization factor: 0.99
# Normalization factor: 1.0
# --> /home/myspot/data/2024_07_Rosario/Ru-CGO-ex/2024-07-27_003_Ru-CGO-ex_Reaction_dwell_000023_data_000059.dat
#       q_nm^-1             I
  2.003187e-02    1.424646e-01
  1.311609e-01    1.050093e-01
  2.422899e-01    1.260834e-02
  3.534189e-01    7.268039e-02
  4.645479e-01    3.206798e-02
  5.756770e-01    6.163773e-02
  6.868060e-01    4.169166e-02
  7.979350e-01    1.237699e-01
  9.090640e-01    6.490542e-01
  1.020193e+00    1.367224e+00
  1.131322e+00    1.570396e+00
  1.242451e+00    2.327017e+00
  1.353580e+00    2.726494e+00
  1.464709e+00    2.886605e+00
  1.575838e+00    3.090972e+00
  1.686967e+00    3.186853e+00
  1.798096e+00    2.966514e+00
  1.909225e+00    3.156343e+00
  2.020354e+00    2.859874e+00
  2.131483e+00    3.166558e+00
  2.242612e+00    3.228161e+00
  2.353741e+00    3.102280e+00
  2.464870e+00    3.197348e+00
  2.575999e+00    3.153065e+00
  2.687128e+00    3.330955e+00
  2.798257e+00    3.282887e+00
  2.909386e+00    3.435143e+00
  3.020515e+00    3.351849e+00
  3.131644e+00    3.451809e+00
  3.242773e+00    3.367036e+00
  3.353902e+00    3.474956e+00
  3.465031e+00    3.458292e+00
  3.576160e+00    3.545492e+00
  3.687289e+00    3.521168e+00
  3.798418e+00    3.353242e+00
  3.909547e+00    3.494919e+00
  4.020676e+00    3.491247e+00
  4.131806e+00    3.598073e+00
  4.242935e+00    3.569905e+00
  4.354064e+00    3.609253e+00
  4.465193e+00    3.518836e+00
  4.576322e+00    3.691945e+00
  4.687451e+00    3.662723e+00
  4.798580e+00    3.634361e+00
  4.909709e+00    3.633330e+00
  5.020838e+00    3.614403e+00
  5.131967e+00    3.617110e+00
  5.243096e+00    3.579682e+00
  5.354225e+00    3.731755e+00
  5.465354e+00    3.520349e+00
  5.576483e+00    3.547890e+00
  5.687612e+00    3.678176e+00
  5.798741e+00    3.533114e+00
  5.909870e+00    3.578826e+00
  6.020999e+00    3.496478e+00
  6.132128e+00    3.623933e+00
  6.243257e+00    3.551898e+00
  6.354386e+00    3.583667e+00
  6.465515e+00    3.573113e+00
  6.576644e+00    3.538786e+00
  6.687773e+00    3.643283e+00
  6.798902e+00    3.577557e+00
  6.910031e+00    3.602777e+00
  7.021160e+00    3.551368e+00
  7.132289e+00    3.587116e+00
  7.243418e+00    3.529337e+00
  7.354547e+00    3.428082e+00
  7.465676e+00    3.448104e+00
  7.576805e+00    3.498767e+00
  7.687934e+00    3.451028e+00
  7.799063e+00    3.393804e+00
  7.910192e+00    3.440681e+00
  8.021321e+00    3.422111e+00
  8.132450e+00    3.564664e+00
  8.243579e+00    3.502533e+00
  8.354708e+00    3.392950e+00
  8.465837e+00    3.390804e+00
  8.576966e+00    3.364166e+00
  8.688095e+00    3.369187e+00
  8.799224e+00    3.368308e+00
  8.910353e+00    3.301346e+00
  9.021482e+00    3.289888e+00
  9.132611e+00    3.236962e+00
  9.243740e+00    3.259382e+00
  9.354869e+00    3.219037e+00
  9.465998e+00    3.261587e+00
  9.577127e+00    3.268384e+00
  9.688256e+00    3.132572e+00
  9.799385e+00    3.183510e+00
  9.910514e+00    3.096684e+00
  1.002164e+01    3.100243e+00
  1.013277e+01    3.081877e+00
  1.024390e+01    3.050050e+00
  1.035503e+01    3.048523e+00
  1.046616e+01    3.026403e+00
  1.057729e+01    3.027229e+00
  1.068842e+01    2.973514e+00
  1.079955e+01    2.974242e+00
  1.091068e+01    2.934915e+00
  1.102180e+01    2.884064e+00
  1.113293e+01    2.910942e+00
  1.124406e+01    2.822498e+00
  1.135519e+01    2.804726e+00
  1.146632e+01    2.820803e+00
  1.157745e+01    2.799260e+00
  1.168858e+01    2.757179e+00
  1.179971e+01    2.838256e+00
  1.191084e+01    2.705824e+00
  1.202197e+01    2.689525e+00
  1.213309e+01    2.696821e+00
  1.224422e+01    2.737946e+00
  1.235535e+01    2.729571e+00
  1.246648e+01    2.680207e+00
  1.257761e+01    2.745912e+00
  1.268874e+01    2.819221e+00
  1.279987e+01    3.030146e+00
  1.291100e+01    3.686279e+00
  1.302213e+01    6.777559e+00
  1.313326e+01    1.500219e+01
  1.324438e+01    1.059723e+01
  1.335551e+01    4.391532e+00
  1.346664e+01    3.114203e+00
  1.357777e+01    2.700804e+00
  1.368890e+01    2.595046e+00
  1.380003e+01    2.490533e+00
  1.391116e+01    2.393468e+00
  1.402229e+01    2.386343e+00
  1.413342e+01    2.335014e+00
  1.424455e+01    2.273919e+00
  1.435568e+01    2.245049e+00
  1.446680e+01    2.261529e+00
  1.457793e+01    2.232361e+00
  1.468906e+01    2.230596e+00
  1.480019e+01    2.201098e+00
  1.491132e+01    2.255689e+00
  1.502245e+01    2.541941e+00
  1.513358e+01    3.849658e+00
  1.524471e+01    5.767868e+00
  1.535584e+01    3.720790e+00
  1.546697e+01    2.447035e+00
  1.557809e+01    2.127944e+00
  1.568922e+01    2.041778e+00
  1.580035e+01    1.953930e+00
  1.591148e+01    1.891194e+00
  1.602261e+01    1.848762e+00
  1.613374e+01    1.842365e+00
  1.624487e+01    1.844457e+00
  1.635600e+01    1.778457e+00
  1.646713e+01    1.762780e+00
  1.657826e+01    1.743603e+00
  1.668938e+01    1.716740e+00
  1.680051e+01    1.720125e+00
  1.691164e+01    1.689129e+00
  1.702277e+01    1.659122e+00
  1.713390e+01    1.629510e+00
  1.724503e+01    1.626222e+00
  1.735616e+01    1.581675e+00
  1.746729e+01    1.600659e+00
  1.757842e+01    1.587647e+00
  1.768955e+01    1.559585e+00
  1.780067e+01    1.551573e+00
  1.791180e+01    1.586249e+00
  1.802293e+01    1.501945e+00
  1.813406e+01    1.491536e+00
  1.824519e+01    1.460365e+00
  1.835632e+01    1.464203e+00
  1.846745e+01    1.449319e+00
  1.857858e+01    1.406962e+00
  1.868971e+01    1.422819e+00
  1.880084e+01    1.400612e+00
  1.891196e+01    1.434371e+00
  1.902309e+01    1.396815e+00
  1.913422e+01    1.392540e+00
  1.924535e+01    1.378125e+00
  1.935648e+01    1.308399e+00
  1.946761e+01    1.329381e+00
  1.957874e+01    1.342812e+00
  1.968987e+01    1.322612e+00
  1.980100e+01    1.275797e+00
  1.991213e+01    1.296131e+00
  2.002325e+01    1.263507e+00
  2.013438e+01    1.287605e+00
  2.024551e+01    1.248324e+00
  2.035664e+01    1.248835e+00
  2.046777e+01    1.238501e+00
  2.057890e+01    1.244992e+00
  2.069003e+01    1.231456e+00
  2.080116e+01    1.224994e+00
  2.091229e+01    1.246523e+00
  2.102342e+01    1.200800e+00
  2.113455e+01    1.234349e+00
  2.124567e+01    1.269272e+00
  2.135680e+01    1.289005e+00
  2.146793e+01    1.380096e+00
  2.157906e+01    1.625357e+00
  2.169019e+01    2.559510e+00
  2.180132e+01    6.003516e+00
  2.191245e+01    8.668316e+00
  2.202358e+01    3.560048e+00
  2.213471e+01    1.843201e+00
  2.224584e+01    1.402834e+00
  2.235696e+01    1.230596e+00
  2.246809e+01    1.164778e+00
  2.257922e+01    1.097513e+00
  2.269035e+01    1.090908e+00
  2.280148e+01    1.050987e+00
  2.291261e+01    1.043141e+00
  2.302374e+01    1.013601e+00
  2.313487e+01    1.005986e+00
  2.324600e+01    9.755456e-01
  2.335713e+01    9.810544e-01
  2.346825e+01    9.744630e-01
  2.357938e+01    9.517780e-01
  2.369051e+01    9.488353e-01
  2.380164e+01    9.246138e-01
  2.391277e+01    9.039161e-01
  2.402390e+01    9.025404e-01
  2.413503e+01    8.816950e-01
  2.424616e+01    8.910289e-01
  2.435729e+01    8.756621e-01
  2.446842e+01    8.884842e-01
  2.457954e+01    8.794776e-01
  2.469067e+01    8.907074e-01
  2.480180e+01    9.125414e-01
  2.491293e+01    8.774124e-01
  2.502406e+01    9.047798e-01
  2.513519e+01    9.036939e-01
  2.524632e+01    9.309134e-01
  2.535745e+01    9.710340e-01
  2.546858e+01    1.046780e+00
  2.557971e+01    1.169182e+00
  2.569083e+01    1.529667e+00
  2.580196e+01    2.867414e+00
  2.591309e+01    6.473876e+00
  2.602422e+01    5.173926e+00
  2.613535e+01    2.137215e+00
  2.624648e+01    1.344528e+00
  2.635761e+01    1.100451e+00
  2.646874e+01    1.021208e+00
  2.657987e+01    1.011085e+00
  2.669100e+01    9.734163e-01
  2.680212e+01    9.720167e-01
  2.691325e+01    1.010820e+00
  2.702438e+01    1.174247e+00
  2.713551e+01    1.763415e+00
  2.724664e+01    2.064135e+00
  2.735777e+01    1.275503e+00
  2.746890e+01    1.010195e+00
  2.758003e+01    9.456100e-01
  2.769116e+01    8.781455e-01
  2.780229e+01    9.067457e-01
  2.791342e+01    8.681546e-01
  2.802454e+01    8.806484e-01
  2.813567e+01    8.741015e-01
  2.824680e+01    8.619978e-01
  2.835793e+01    8.689086e-01
  2.846906e+01    8.604112e-01
  2.858019e+01    8.341593e-01
  2.869132e+01    8.415498e-01
  2.880245e+01    8.342831e-01
  2.891358e+01    7.939433e-01
  2.902471e+01    8.327783e-01
  2.913583e+01    8.123857e-01
  2.924696e+01    8.172329e-01
  2.935809e+01    8.028740e-01
  2.946922e+01    8.117328e-01
  2.958035e+01    7.963418e-01
  2.969148e+01    7.841895e-01
  2.980261e+01    7.893445e-01
  2.991374e+01    8.124203e-01
  3.002487e+01    7.972844e-01
  3.013600e+01    8.115769e-01
  3.024712e+01    7.877842e-01
  3.035825e+01    8.015362e-01
  3.046938e+01    7.913173e-01
  3.058051e+01    7.999426e-01
  3.069164e+01    7.821018e-01
  3.080277e+01    7.737823e-01
  3.091390e+01    8.027249e-01
  3.102503e+01    7.872609e-01
  3.113616e+01    8.027000e-01
  3.124729e+01    8.125131e-01
  3.135841e+01    8.322368e-01
  3.146954e+01    8.166074e-01
  3.158067e+01    8.689334e-01
  3.169180e+01    9.949515e-01
  3.180293e+01    1.482275e+00
  3.191406e+01    2.047157e+00
  3.202519e+01    1.307404e+00
  3.213632e+01    9.485900e-01
  3.224745e+01    8.655270e-01
  3.235858e+01    8.274242e-01
  3.246970e+01    7.983440e-01
  3.254908e+01    7.675349e-01

File: 2024-07-27_003_Ru-CGO-ex_Reaction_dwell_000023_data_000060.dat
# == pyFAI calibration ==
# Distance Sample to Detector: 0.4 m
# PONI: 9.750e-02, 1.135e-01 m
# Rotations: -0.000175 0.000000 -0.000000 rad
#
# == Fit2d calibration ==
# Distance Sample-beamCenter: 400.000 mm
# Center: x=1514.000, y=1300.000 pix
# Tilt: 0.010 deg  TiltPlanRot: 0.010 deg
#
# Detector Detector	 Spline= None	 PixelSize= 7.500e-05, 7.500e-05 m
#    Detector has a mask: False
#    Detector has a dark current: False
#    detector has a flat field: False
#
# Wavelength: 6.888e-11 m
# Mask applied: user provided
# Dark current applied: False
# Flat field applied: False
# Polarization factor: 0.99
# Normalization factor: 1.0
# --> /home/myspot/data/2024_07_Rosario/Ru-CGO-ex/2024-07-27_003_Ru-CGO-ex_Reaction_dwell_000023_data_000060.dat
#       q_nm^-1             I
  2.003187e-02    2.195834e-01
  1.311609e-01    3.480582e-03
  2.422899e-01    5.424368e-02
  3.534189e-01    7.802312e-02
  4.645479e-01    3.863389e-02
  5.756770e-01    6.617640e-02
  6.868060e-01    5.723612e-02
  7.979350e-01    1.786736e-01
  9.090640e-01    6.029428e-01
  1.020193e+00    1.284840e+00
  1.131322e+00    1.635159e+00
  1.242451e+00    2.402920e+00
  1.353580e+00    2.841867e+00
  1.464709e+00    3.026180e+00
  1.575838e+00    3.297539e+00
  1.686967e+00    3.158267e+00
  1.798096e+00    2.967513e+00
  1.909225e+00    3.020578e+00
  2.020354e+00    3.153883e+00
  2.131483e+00    3.229924e+00
  2.242612e+00    3.238127e+00
  2.353741e+00    3.190328e+00
  2.464870e+00    3.252406e+00
  2.575999e+00    3.289076e+00
  2.687128e+00    3.260382e+00
  2.798257e+00    3.435475e+00
  2.909386e+00    3.401189e+00
  3.020515e+00    3.218007e+00
  3.131644e+00    3.321941e+00
  3.242773e+00    3.447018e+00
  3.353902e+00    3.473288e+00
  3.465031e+00    3.421557e+00
  3.576160e+00    3.537992e+00
  3.687289e+00    3.516672e+00
  3.798418e+00    3.475332e+00
  3.909547e+00    3.596574e+00
  4.020676e+00    3.450489e+00
  4.131806e+00    3.549697e+00
  4.242935e+00    3.545006e+00
  4.354064e+00    3.579820e+00
  4.465193e+00    3.563733e+00
  4.576322e+00    3.577966e+00
  4.687451e+00    3.619500e+00
  4.798580e+00    3.581901e+00
  4.909709e+00    3.707825e+00
  5.020838e+00    3.665919e+00
  5.131967e+00    3.683304e+00
  5.243096e+00    3.620964e+00
  5.354225e+00    3.613015e+00
  5.465354e+00    3.575600e+00
  5.576483e+00    3.612561e+00
  5.687612e+00    3.561760e+00
  5.798741e+00    3.463243e+00
  5.909870e+00    3.655030e+00
  6.020999e+00    3.549812e+00
  6.132128e+00    3.585662e+00
  6.243257e+00    3.585313e+00
  6.354386e+00    3.553219e+00
  6.465515e+00    3.582370e+00
  6.576644e+00    3.496433e+00
  6.687773e+00    3.553373e+00
  6.798902e+00    3.608070e+00
  6.910031e+00    3.514505e+00
  7.021160e+00    3.555013e+00
  7.132289e+00    3.511738e+00
  7.243418e+00    3.521278e+00
  7.354547e+00    3.422851e+00
  7.465676e+00    3.484480e+00
  7.576805e+00    3.470264e+00
  7.687934e+00    3.532790e+00
  7.799063e+00    3.429539e+00
  7.910192e+00    3.412915e+00
  8.021321e+00    3.460276e+00
  8.132450e+00    3.518909e+00
  8.243579e+00    3.464607e+00
  8.354708e+00    3.437064e+00
  8.465837e+00    3.385746e+00
  8.576966e+00    3.370405e+00
  8.688095e+00    3.248399e+00
  8.799224e+00    3.272229e+00
  8.910353e+00    3.312299e+00
  9.021482e+00    3.271139e+00
  9.132611e+00    3.243912e+00
  9.243740e+00    3.238206e+00
  9.354869e+00    3.243490e+00
  9.465998e+00    3.200737e+00
  9.577127e+00    3.267204e+00
  9.688256e+00    3.212431e+00
  9.799385e+00    3.143545e+00
  9.910514e+00    3.125030e+00
  1.002164e+01    3.069114e+00
  1.013277e+01    3.073842e+00
  1.024390e+01    3.076296e+00
  1.035503e+01    3.017511e+00
  1.046616e+01    3.051058e+00
  1.057729e+01    3.014812e+00
  1.068842e+01    2.970936e+00
  1.079955e+01    2.977756e+00
  1.091068e+01    2.940660e+00
  1.102180e+01    2.919926e+00
  1.113293e+01    2.877677e+00
  1.124406e+01    2.850574e+00
  1.135519e+01    2.890907e+00
  1.146632e+01    2.812248e+00
  1.157745e+01    2.766660e+00
  1.168858e+01    2.757501e+00
  1.179971e+01    2.737637e+00
  1.191084e+01    2.722485e+00
  1.202197e+01    2.717267e+00
  1.213309e+01    2.731447e+00
  1.224422e+01    2.734631e+00
  1.235535e+01    2.693928e+00
  1.246648e+01    2.651486e+00
  1.257761e+01    2.707136e+00
  1.268874e+01    2.829291e+00
  1.279987e+01    3.030733e+00
  1.291100e+01    3.656291e+00
  1.302213e+01    6.712189e+00
  1.313326e+01    1.486551e+01
  1.324438e+01    1.069152e+01
  1.335551e+01    4.409668e+00
  1.346664e+01    3.121994e+00
  1.357777e+01    2.741044e+00
  1.368890e+01    2.571936e+00
  1.380003e+01    2.523267e+00
  1.391116e+01    2.412108e+00
  1.402229e+01    2.335680e+00
  1.413342e+01    2.327970e+00
  1.424455e+01    2.273833e+00
  1.435568e+01    2.204574e+00
  1.446680e+01    2.244045e+00
  1.457793e+01    2.204726e+00
  1.468906e+01    2.247972e+00
  1.480019e+01    2.243250e+00
  1.491132e+01    2.261415e+00
  1.502245e+01    2.483446e+00
  1.513358e+01    3.833316e+00
  1.524471e+01    5.677373e+00
  1.535584e+01    3.757947e+00
  1.546697e+01    2.434282e+00
  1.557809e+01    2.138322e+00
  1.568922e+01    2.040804e+00
  1.580035e+01    1.928359e+00
  1.591148e+01    1.891647e+00
  1.602261e+01    1.882438e+00
  1.613374e+01    1.885319e+00
  1.624487e+01    1.846153e+00
  1.635600e+01    1.765224e+00
  1.646713e+01    1.748893e+00
  1.657826e+01    1.764348e+00
  1.668938e+01    1.705875e+00
  1.680051e+01    1.720789e+00
  1.691164e+01    1.706851e+00
  1.702277e+01    1.683989e+00
  1.713390e+01    1.647194e+00
  1.724503e+01    1.627838e+00
  1.735616e+01    1.598535e+00
  1.746729e+01    1.581509e+00
  1.757842e+01    1.583493e+00
  1.768955e+01    1.563479e+00
  1.780067e+01    1.529217e+00
  1.791180e+01    1.519983e+00
  1.802293e+01    1.508674e+00
  1.813406e+01    1.514286e+00
  1.824519e+01    1.468796e+00
  1.835632e+01    1.437998e+00
  1.846745e+01    1.478664e+00
  1.857858e+01    1.450991e+00
  1.868971e+01    1.418144e+00
  1.880084e+01    1.429534e+00
  1.891196e+01    1.388074e+00
  1.902309e+01    1.370267e+00
  1.913422e+01    1.388869e+00
  1.924535e+01    1.351519e+00
  1.935648e+01    1.344849e+00
  1.946761e+01    1.346865e+00
  1.957874e+01    1.314210e+00
  1.968987e+01    1.303591e+00
  1.980100e+01    1.311651e+00
  1.991213e+01    1.286973e+00
  2.002325e+01    1.279107e+00
  2.013438e+01    1.272185e+00
  2.024551e+01    1.270777e+00
  2.035664e+01    1.277746e+00
  2.046777e+01    1.266307e+00
  2.057890e+01    1.213375e+00
  2.069003e+01    1.232860e+00
  2.080116e+01    1.228523e+00
  2.091229e+01    1.219408e+00
  2.102342e+01    1.220805e+00
  2.113455e+01    1.205564e+00
  2.124567e+01    1.239280e+00
  2.135680e+01    1.268160e+00
  2.146793e+01    1.391156e+00
  2.157906e+01    1.614875e+00
  2.169019e+01    2.536247e+00
  2.180132e+01    5.876522e+00
  2.191245e+01    8.715261e+00
  2.202358e+01    3.621431e+00
  2.213471e+01    1.869809e+00
  2.224584e+01    1.423291e+00
  2.235696e+01    1.234951e+00
  2.246809e+01    1.155872e+00
  2.257922e+01    1.106369e+00
  2.269035e+01    1.115585e+00
  2.280148e+01    1.051647e+00
  2.291261e+01    1.030956e+00
  2.302374e+01    1.010725e+00
  2.313487e+01    1.007120e+00
  2.324600e+01    9.950255e-01
  2.335713e+01    9.925193e-01
  2.346825e+01    9.676884e-01
  2.357938e+01    9.493672e-01
  2.369051e+01    9.508543e-01
  2.380164e+01    9.241787e-01
  2.391277e+01    9.233799e-01
  2.402390e+01    8.943574e-01
  2.413503e+01    8.968056e-01
  2.424616e+01    8.771091e-01
  2.435729e+01    9.066861e-01
  2.446842e+01    9.125928e-01
  2.457954e+01    8.986949e-01
  2.469067e+01    9.176334e-01
  2.480180e+01    9.029706e-01
  2.491293e+01    8.951625e-01
  2.502406e+01    9.228243e-01
  2.513519e+01    9.201792e-01
  2.524632e+01    9.303362e-01
  2.535745e+01    9.781375e-01
  2.546858e+01    1.043358e+00
  2.557971e+01    1.149234e+00
  2.569083e+01    1.491159e+00
  2.580196e+01    2.764225e+00
  2.591309e+01    6.323914e+00
  2.602422e+01    5.213221e+00
  2.613535e+01    2.150292e+00
  2.624648e+01    1.355823e+00
  2.635761e+01    1.105564e+00
  2.646874e+01    1.016493e+00
  2.657987e+01    9.912810e-01
  2.669100e+01    9.666573e-01
  2.680212e+01    9.858332e-01
  2.691325e+01    9.992796e-01
  2.702438e+01    1.151903e+00
  2.713551e+01    1.735934e+00
  2.724664e+01    2.064318e+00
  2.735777e+01    1.285628e+00
  2.746890e+01    1.027981e+00
  2.758003e+01    9.215384e-01
  2.769116e+01    8.986394e-01
  2.780229e+01    9.036711e-01
  2.791342e+01    8.622401e-01
  2.802454e+01    8.741311e-01
  2.813567e+01    8.771167e-01
  2.824680e+01    8.755485e-01
  2.835793e+01    8.344193e-01
  2.846906e+01    8.326824e-01
  2.858019e+01    8.478614e-01
  2.869132e+01    8.236611e-01
  2.880245e+01    8.265823e-01
  2.891358e+01    8.072103e-01
  2.902471e+01    8.431114e-01
  2.913583e+01    8.207454e-01
  2.924696e+01    8.096128e-01
  2.935809e+01    7.977465e-01
  2.946922e+01    8.034037e-01
  2.958035e+01    7.852234e-01
  2.969148e+01    8.037693e-01
  2.980261e+01    7.945180e-01
  2.991374e+01    7.839491e-01
  3.002487e+01    8.110304e-01
  3.013600e+01    8.065823e-01
  3.024712e+01    8.015894e-01
  3.035825e+01    7.925241e-01
  3.046938e+01    7.848411e-01
  3.058051e+01    7.778479e-01
  3.069164e+01    7.983813e-01
  3.080277e+01    7.685004e-01
  3.091390e+01    7.704335e-01
  3.102503e+01    7.838775e-01
  3.113616e+01    7.901331e-01
  3.124729e+01    7.900940e-01
  3.135841e+01    8.181479e-01
  3.146954e+01    8.147416e-01
  3.158067e+01    8.770328e-01
  3.169180e+01    9.881673e-01
  3.180293e+01    1.442965e+00
  3.191406e+01    2.092316e+00
  3.202519e+01    1.347333e+00
  3.213632e+01    9.279919e-01
  3.224745e+01    8.386030e-01
  3.235858e+01    7.975438e-01
  3.246970e+01    7.721554e-01
  3.254908e+01    7.832713e-01