Folder: myspot_2024_07/XRD/Reaction conditions (part 66)

File: 2024-07-27_003_Ru-CGO-ex_Reaction_dwell_000023_data_000162.dat
# == pyFAI calibration ==
# Distance Sample to Detector: 0.4 m
# PONI: 9.750e-02, 1.135e-01 m
# Rotations: -0.000175 0.000000 -0.000000 rad
#
# == Fit2d calibration ==
# Distance Sample-beamCenter: 400.000 mm
# Center: x=1514.000, y=1300.000 pix
# Tilt: 0.010 deg  TiltPlanRot: 0.010 deg
#
# Detector Detector	 Spline= None	 PixelSize= 7.500e-05, 7.500e-05 m
#    Detector has a mask: False
#    Detector has a dark current: False
#    detector has a flat field: False
#
# Wavelength: 6.888e-11 m
# Mask applied: user provided
# Dark current applied: False
# Flat field applied: False
# Polarization factor: 0.99
# Normalization factor: 1.0
# --> /home/myspot/data/2024_07_Rosario/Ru-CGO-ex/2024-07-27_003_Ru-CGO-ex_Reaction_dwell_000023_data_000162.dat
#       q_nm^-1             I
  2.003187e-02    0.000000e+00
  1.311609e-01    4.054305e-02
  2.422899e-01    8.992700e-02
  3.534189e-01    1.902129e-02
  4.645479e-01    5.308961e-02
  5.756770e-01    4.543473e-02
  6.868060e-01    2.550572e-02
  7.979350e-01    1.841503e-01
  9.090640e-01    6.683232e-01
  1.020193e+00    1.263215e+00
  1.131322e+00    1.460390e+00
  1.242451e+00    2.484531e+00
  1.353580e+00    2.693061e+00
  1.464709e+00    2.875103e+00
  1.575838e+00    3.235608e+00
  1.686967e+00    3.212498e+00
  1.798096e+00    2.989401e+00
  1.909225e+00    3.140038e+00
  2.020354e+00    3.005784e+00
  2.131483e+00    3.045441e+00
  2.242612e+00    3.147147e+00
  2.353741e+00    3.086496e+00
  2.464870e+00    3.144157e+00
  2.575999e+00    3.186068e+00
  2.687128e+00    3.207330e+00
  2.798257e+00    3.155244e+00
  2.909386e+00    3.302644e+00
  3.020515e+00    3.379108e+00
  3.131644e+00    3.459630e+00
  3.242773e+00    3.398387e+00
  3.353902e+00    3.441456e+00
  3.465031e+00    3.319111e+00
  3.576160e+00    3.435792e+00
  3.687289e+00    3.435830e+00
  3.798418e+00    3.572500e+00
  3.909547e+00    3.487636e+00
  4.020676e+00    3.487558e+00
  4.131806e+00    3.511986e+00
  4.242935e+00    3.446977e+00
  4.354064e+00    3.530250e+00
  4.465193e+00    3.619458e+00
  4.576322e+00    3.592314e+00
  4.687451e+00    3.567710e+00
  4.798580e+00    3.589808e+00
  4.909709e+00    3.609554e+00
  5.020838e+00    3.627157e+00
  5.131967e+00    3.609300e+00
  5.243096e+00    3.651219e+00
  5.354225e+00    3.594038e+00
  5.465354e+00    3.579328e+00
  5.576483e+00    3.497451e+00
  5.687612e+00    3.578446e+00
  5.798741e+00    3.644769e+00
  5.909870e+00    3.543177e+00
  6.020999e+00    3.467026e+00
  6.132128e+00    3.610821e+00
  6.243257e+00    3.572219e+00
  6.354386e+00    3.695921e+00
  6.465515e+00    3.463968e+00
  6.576644e+00    3.535292e+00
  6.687773e+00    3.510732e+00
  6.798902e+00    3.493798e+00
  6.910031e+00    3.517156e+00
  7.021160e+00    3.455265e+00
  7.132289e+00    3.469021e+00
  7.243418e+00    3.454965e+00
  7.354547e+00    3.418295e+00
  7.465676e+00    3.420730e+00
  7.576805e+00    3.401936e+00
  7.687934e+00    3.443674e+00
  7.799063e+00    3.443381e+00
  7.910192e+00    3.445718e+00
  8.021321e+00    3.392052e+00
  8.132450e+00    3.463937e+00
  8.243579e+00    3.425257e+00
  8.354708e+00    3.348631e+00
  8.465837e+00    3.338070e+00
  8.576966e+00    3.255303e+00
  8.688095e+00    3.307715e+00
  8.799224e+00    3.299813e+00
  8.910353e+00    3.306029e+00
  9.021482e+00    3.209667e+00
  9.132611e+00    3.221615e+00
  9.243740e+00    3.203278e+00
  9.354869e+00    3.154315e+00
  9.465998e+00    3.198272e+00
  9.577127e+00    3.179185e+00
  9.688256e+00    3.143537e+00
  9.799385e+00    3.129332e+00
  9.910514e+00    3.107889e+00
  1.002164e+01    3.059843e+00
  1.013277e+01    3.067618e+00
  1.024390e+01    3.045460e+00
  1.035503e+01    3.059528e+00
  1.046616e+01    3.040605e+00
  1.057729e+01    2.947148e+00
  1.068842e+01    2.930425e+00
  1.079955e+01    2.906672e+00
  1.091068e+01    2.890995e+00
  1.102180e+01    2.859139e+00
  1.113293e+01    2.900832e+00
  1.124406e+01    2.868470e+00
  1.135519e+01    2.855318e+00
  1.146632e+01    2.769472e+00
  1.157745e+01    2.737926e+00
  1.168858e+01    2.754488e+00
  1.179971e+01    2.719304e+00
  1.191084e+01    2.711264e+00
  1.202197e+01    2.707273e+00
  1.213309e+01    2.685057e+00
  1.224422e+01    2.679181e+00
  1.235535e+01    2.648026e+00
  1.246648e+01    2.680325e+00
  1.257761e+01    2.736551e+00
  1.268874e+01    2.809083e+00
  1.279987e+01    3.039753e+00
  1.291100e+01    3.558418e+00
  1.302213e+01    6.555716e+00
  1.313326e+01    1.449746e+01
  1.324438e+01    1.061778e+01
  1.335551e+01    4.316553e+00
  1.346664e+01    3.061489e+00
  1.357777e+01    2.742894e+00
  1.368890e+01    2.514997e+00
  1.380003e+01    2.459027e+00
  1.391116e+01    2.413307e+00
  1.402229e+01    2.333053e+00
  1.413342e+01    2.293352e+00
  1.424455e+01    2.272558e+00
  1.435568e+01    2.200734e+00
  1.446680e+01    2.198122e+00
  1.457793e+01    2.217029e+00
  1.468906e+01    2.186207e+00
  1.480019e+01    2.161948e+00
  1.491132e+01    2.262914e+00
  1.502245e+01    2.461032e+00
  1.513358e+01    3.732954e+00
  1.524471e+01    5.746589e+00
  1.535584e+01    3.718848e+00
  1.546697e+01    2.445985e+00
  1.557809e+01    2.065823e+00
  1.568922e+01    1.970773e+00
  1.580035e+01    1.953381e+00
  1.591148e+01    1.914807e+00
  1.602261e+01    1.849027e+00
  1.613374e+01    1.827640e+00
  1.624487e+01    1.815920e+00
  1.635600e+01    1.762842e+00
  1.646713e+01    1.767128e+00
  1.657826e+01    1.758505e+00
  1.668938e+01    1.710534e+00
  1.680051e+01    1.659563e+00
  1.691164e+01    1.661406e+00
  1.702277e+01    1.645257e+00
  1.713390e+01    1.663742e+00
  1.724503e+01    1.613434e+00
  1.735616e+01    1.600464e+00
  1.746729e+01    1.604710e+00
  1.757842e+01    1.573374e+00
  1.768955e+01    1.530470e+00
  1.780067e+01    1.501125e+00
  1.791180e+01    1.530792e+00
  1.802293e+01    1.494853e+00
  1.813406e+01    1.453015e+00
  1.824519e+01    1.464418e+00
  1.835632e+01    1.437281e+00
  1.846745e+01    1.416425e+00
  1.857858e+01    1.398449e+00
  1.868971e+01    1.402280e+00
  1.880084e+01    1.385501e+00
  1.891196e+01    1.393737e+00
  1.902309e+01    1.381573e+00
  1.913422e+01    1.352455e+00
  1.924535e+01    1.363515e+00
  1.935648e+01    1.355305e+00
  1.946761e+01    1.310342e+00
  1.957874e+01    1.310536e+00
  1.968987e+01    1.297645e+00
  1.980100e+01    1.288883e+00
  1.991213e+01    1.305135e+00
  2.002325e+01    1.255101e+00
  2.013438e+01    1.268152e+00
  2.024551e+01    1.252239e+00
  2.035664e+01    1.241373e+00
  2.046777e+01    1.223847e+00
  2.057890e+01    1.219572e+00
  2.069003e+01    1.217066e+00
  2.080116e+01    1.214618e+00
  2.091229e+01    1.229695e+00
  2.102342e+01    1.213706e+00
  2.113455e+01    1.231551e+00
  2.124567e+01    1.244621e+00
  2.135680e+01    1.280902e+00
  2.146793e+01    1.351092e+00
  2.157906e+01    1.599038e+00
  2.169019e+01    2.456440e+00
  2.180132e+01    5.738846e+00
  2.191245e+01    8.722606e+00
  2.202358e+01    3.615886e+00
  2.213471e+01    1.838488e+00
  2.224584e+01    1.386505e+00
  2.235696e+01    1.227164e+00
  2.246809e+01    1.136350e+00
  2.257922e+01    1.101605e+00
  2.269035e+01    1.083613e+00
  2.280148e+01    1.058404e+00
  2.291261e+01    1.011895e+00
  2.302374e+01    1.000167e+00
  2.313487e+01    1.000735e+00
  2.324600e+01    9.943499e-01
  2.335713e+01    9.690394e-01
  2.346825e+01    9.908182e-01
  2.357938e+01    9.525304e-01
  2.369051e+01    9.658694e-01
  2.380164e+01    9.021344e-01
  2.391277e+01    8.960130e-01
  2.402390e+01    8.655719e-01
  2.413503e+01    8.843157e-01
  2.424616e+01    8.706304e-01
  2.435729e+01    8.681233e-01
  2.446842e+01    9.045709e-01
  2.457954e+01    8.749950e-01
  2.469067e+01    8.929393e-01
  2.480180e+01    9.019791e-01
  2.491293e+01    9.004248e-01
  2.502406e+01    8.908427e-01
  2.513519e+01    9.074783e-01
  2.524632e+01    9.243079e-01
  2.535745e+01    9.375637e-01
  2.546858e+01    1.000764e+00
  2.557971e+01    1.147482e+00
  2.569083e+01    1.461715e+00
  2.580196e+01    2.710697e+00
  2.591309e+01    6.218537e+00
  2.602422e+01    5.297526e+00
  2.613535e+01    2.118966e+00
  2.624648e+01    1.324441e+00
  2.635761e+01    1.085906e+00
  2.646874e+01    1.003320e+00
  2.657987e+01    9.781840e-01
  2.669100e+01    9.373249e-01
  2.680212e+01    9.432182e-01
  2.691325e+01    9.873707e-01
  2.702438e+01    1.130540e+00
  2.713551e+01    1.676464e+00
  2.724664e+01    2.085485e+00
  2.735777e+01    1.294113e+00
  2.746890e+01    1.011237e+00
  2.758003e+01    9.415147e-01
  2.769116e+01    8.999959e-01
  2.780229e+01    8.684542e-01
  2.791342e+01    8.526176e-01
  2.802454e+01    8.583838e-01
  2.813567e+01    8.459905e-01
  2.824680e+01    8.276931e-01
  2.835793e+01    8.389359e-01
  2.846906e+01    8.278411e-01
  2.858019e+01    8.147804e-01
  2.869132e+01    8.296435e-01
  2.880245e+01    8.218272e-01
  2.891358e+01    8.302865e-01
  2.902471e+01    8.057868e-01
  2.913583e+01    7.935051e-01
  2.924696e+01    8.135213e-01
  2.935809e+01    7.971289e-01
  2.946922e+01    8.113906e-01
  2.958035e+01    7.627953e-01
  2.969148e+01    7.842324e-01
  2.980261e+01    8.035503e-01
  2.991374e+01    7.934302e-01
  3.002487e+01    7.958734e-01
  3.013600e+01    7.749526e-01
  3.024712e+01    7.880161e-01
  3.035825e+01    7.768037e-01
  3.046938e+01    7.755380e-01
  3.058051e+01    7.590933e-01
  3.069164e+01    7.851632e-01
  3.080277e+01    7.794152e-01
  3.091390e+01    7.737151e-01
  3.102503e+01    7.948249e-01
  3.113616e+01    7.638819e-01
  3.124729e+01    8.023251e-01
  3.135841e+01    7.809106e-01
  3.146954e+01    7.961656e-01
  3.158067e+01    8.427367e-01
  3.169180e+01    9.991074e-01
  3.180293e+01    1.418651e+00
  3.191406e+01    2.026041e+00
  3.202519e+01    1.335778e+00
  3.213632e+01    9.169697e-01
  3.224745e+01    8.286451e-01
  3.235858e+01    7.953117e-01
  3.246970e+01    8.019845e-01
  3.254908e+01    7.648210e-01

File: 2024-07-27_003_Ru-CGO-ex_Reaction_dwell_000023_data_000163.dat
# == pyFAI calibration ==
# Distance Sample to Detector: 0.4 m
# PONI: 9.750e-02, 1.135e-01 m
# Rotations: -0.000175 0.000000 -0.000000 rad
#
# == Fit2d calibration ==
# Distance Sample-beamCenter: 400.000 mm
# Center: x=1514.000, y=1300.000 pix
# Tilt: 0.010 deg  TiltPlanRot: 0.010 deg
#
# Detector Detector	 Spline= None	 PixelSize= 7.500e-05, 7.500e-05 m
#    Detector has a mask: False
#    Detector has a dark current: False
#    detector has a flat field: False
#
# Wavelength: 6.888e-11 m
# Mask applied: user provided
# Dark current applied: False
# Flat field applied: False
# Polarization factor: 0.99
# Normalization factor: 1.0
# --> /home/myspot/data/2024_07_Rosario/Ru-CGO-ex/2024-07-27_003_Ru-CGO-ex_Reaction_dwell_000023_data_000163.dat
#       q_nm^-1             I
  2.003187e-02    0.000000e+00
  1.311609e-01    1.358899e-02
  2.422899e-01    7.470890e-02
  3.534189e-01    2.401813e-02
  4.645479e-01    5.232560e-02
  5.756770e-01    2.829490e-02
  6.868060e-01    1.891202e-02
  7.979350e-01    1.771615e-01
  9.090640e-01    6.674820e-01
  1.020193e+00    1.186214e+00
  1.131322e+00    1.524099e+00
  1.242451e+00    2.373525e+00
  1.353580e+00    2.756088e+00
  1.464709e+00    2.959283e+00
  1.575838e+00    3.094976e+00
  1.686967e+00    2.995690e+00
  1.798096e+00    3.075946e+00
  1.909225e+00    3.063674e+00
  2.020354e+00    2.994165e+00
  2.131483e+00    3.048518e+00
  2.242612e+00    3.015958e+00
  2.353741e+00    3.185875e+00
  2.464870e+00    3.234152e+00
  2.575999e+00    3.137335e+00
  2.687128e+00    3.154792e+00
  2.798257e+00    3.222980e+00
  2.909386e+00    3.279428e+00
  3.020515e+00    3.304957e+00
  3.131644e+00    3.335540e+00
  3.242773e+00    3.381132e+00
  3.353902e+00    3.349883e+00
  3.465031e+00    3.465334e+00
  3.576160e+00    3.325855e+00
  3.687289e+00    3.473896e+00
  3.798418e+00    3.548316e+00
  3.909547e+00    3.523026e+00
  4.020676e+00    3.534337e+00
  4.131806e+00    3.505464e+00
  4.242935e+00    3.539412e+00
  4.354064e+00    3.498093e+00
  4.465193e+00    3.531537e+00
  4.576322e+00    3.476557e+00
  4.687451e+00    3.577042e+00
  4.798580e+00    3.560207e+00
  4.909709e+00    3.593196e+00
  5.020838e+00    3.547479e+00
  5.131967e+00    3.664897e+00
  5.243096e+00    3.717865e+00
  5.354225e+00    3.705073e+00
  5.465354e+00    3.587419e+00
  5.576483e+00    3.493950e+00
  5.687612e+00    3.484877e+00
  5.798741e+00    3.527136e+00
  5.909870e+00    3.517950e+00
  6.020999e+00    3.473958e+00
  6.132128e+00    3.573972e+00
  6.243257e+00    3.538285e+00
  6.354386e+00    3.467772e+00
  6.465515e+00    3.550171e+00
  6.576644e+00    3.550602e+00
  6.687773e+00    3.522452e+00
  6.798902e+00    3.512843e+00
  6.910031e+00    3.542544e+00
  7.021160e+00    3.484339e+00
  7.132289e+00    3.410763e+00
  7.243418e+00    3.477766e+00
  7.354547e+00    3.528419e+00
  7.465676e+00    3.547374e+00
  7.576805e+00    3.441035e+00
  7.687934e+00    3.417748e+00
  7.799063e+00    3.502074e+00
  7.910192e+00    3.370028e+00
  8.021321e+00    3.383356e+00
  8.132450e+00    3.479600e+00
  8.243579e+00    3.473623e+00
  8.354708e+00    3.360897e+00
  8.465837e+00    3.320051e+00
  8.576966e+00    3.279358e+00
  8.688095e+00    3.310963e+00
  8.799224e+00    3.342396e+00
  8.910353e+00    3.328450e+00
  9.021482e+00    3.243868e+00
  9.132611e+00    3.267512e+00
  9.243740e+00    3.229687e+00
  9.354869e+00    3.126527e+00
  9.465998e+00    3.154522e+00
  9.577127e+00    3.210157e+00
  9.688256e+00    3.192603e+00
  9.799385e+00    3.119695e+00
  9.910514e+00    3.090783e+00
  1.002164e+01    3.066181e+00
  1.013277e+01    3.076889e+00
  1.024390e+01    3.020520e+00
  1.035503e+01    3.077203e+00
  1.046616e+01    3.073449e+00
  1.057729e+01    3.037884e+00
  1.068842e+01    2.948359e+00
  1.079955e+01    2.919825e+00
  1.091068e+01    2.898786e+00
  1.102180e+01    2.864735e+00
  1.113293e+01    2.867090e+00
  1.124406e+01    2.828316e+00
  1.135519e+01    2.780319e+00
  1.146632e+01    2.801143e+00
  1.157745e+01    2.772059e+00
  1.168858e+01    2.792110e+00
  1.179971e+01    2.761968e+00
  1.191084e+01    2.710326e+00
  1.202197e+01    2.717382e+00
  1.213309e+01    2.660011e+00
  1.224422e+01    2.654670e+00
  1.235535e+01    2.682702e+00
  1.246648e+01    2.695525e+00
  1.257761e+01    2.728380e+00
  1.268874e+01    2.712187e+00
  1.279987e+01    2.962893e+00
  1.291100e+01    3.677678e+00
  1.302213e+01    6.570561e+00
  1.313326e+01    1.463820e+01
  1.324438e+01    1.064216e+01
  1.335551e+01    4.426207e+00
  1.346664e+01    3.045419e+00
  1.357777e+01    2.734043e+00
  1.368890e+01    2.512929e+00
  1.380003e+01    2.502347e+00
  1.391116e+01    2.400476e+00
  1.402229e+01    2.355612e+00
  1.413342e+01    2.252930e+00
  1.424455e+01    2.311320e+00
  1.435568e+01    2.200562e+00
  1.446680e+01    2.232321e+00
  1.457793e+01    2.216014e+00
  1.468906e+01    2.178974e+00
  1.480019e+01    2.235095e+00
  1.491132e+01    2.263093e+00
  1.502245e+01    2.503009e+00
  1.513358e+01    3.737347e+00
  1.524471e+01    5.573447e+00
  1.535584e+01    3.746976e+00
  1.546697e+01    2.421518e+00
  1.557809e+01    2.079389e+00
  1.568922e+01    1.987601e+00
  1.580035e+01    1.905147e+00
  1.591148e+01    1.865022e+00
  1.602261e+01    1.871509e+00
  1.613374e+01    1.840310e+00
  1.624487e+01    1.814086e+00
  1.635600e+01    1.759043e+00
  1.646713e+01    1.727032e+00
  1.657826e+01    1.768854e+00
  1.668938e+01    1.675672e+00
  1.680051e+01    1.686258e+00
  1.691164e+01    1.640972e+00
  1.702277e+01    1.641014e+00
  1.713390e+01    1.633288e+00
  1.724503e+01    1.608813e+00
  1.735616e+01    1.587090e+00
  1.746729e+01    1.571070e+00
  1.757842e+01    1.584872e+00
  1.768955e+01    1.546020e+00
  1.780067e+01    1.518193e+00
  1.791180e+01    1.506947e+00
  1.802293e+01    1.467035e+00
  1.813406e+01    1.480407e+00
  1.824519e+01    1.465567e+00
  1.835632e+01    1.460146e+00
  1.846745e+01    1.444021e+00
  1.857858e+01    1.424142e+00
  1.868971e+01    1.405903e+00
  1.880084e+01    1.373631e+00
  1.891196e+01    1.376911e+00
  1.902309e+01    1.353807e+00
  1.913422e+01    1.353899e+00
  1.924535e+01    1.359356e+00
  1.935648e+01    1.320138e+00
  1.946761e+01    1.347085e+00
  1.957874e+01    1.333886e+00
  1.968987e+01    1.284797e+00
  1.980100e+01    1.288286e+00
  1.991213e+01    1.277493e+00
  2.002325e+01    1.259235e+00
  2.013438e+01    1.274635e+00
  2.024551e+01    1.247470e+00
  2.035664e+01    1.264260e+00
  2.046777e+01    1.219808e+00
  2.057890e+01    1.226731e+00
  2.069003e+01    1.256407e+00
  2.080116e+01    1.211329e+00
  2.091229e+01    1.226870e+00
  2.102342e+01    1.209473e+00
  2.113455e+01    1.201475e+00
  2.124567e+01    1.219302e+00
  2.135680e+01    1.279560e+00
  2.146793e+01    1.356147e+00
  2.157906e+01    1.612512e+00
  2.169019e+01    2.501787e+00
  2.180132e+01    5.792749e+00
  2.191245e+01    8.700326e+00
  2.202358e+01    3.601895e+00
  2.213471e+01    1.848817e+00
  2.224584e+01    1.378132e+00
  2.235696e+01    1.232324e+00
  2.246809e+01    1.143513e+00
  2.257922e+01    1.128353e+00
  2.269035e+01    1.085938e+00
  2.280148e+01    1.043952e+00
  2.291261e+01    1.032305e+00
  2.302374e+01    1.027003e+00
  2.313487e+01    9.794661e-01
  2.324600e+01    1.004339e+00
  2.335713e+01    9.771197e-01
  2.346825e+01    9.550214e-01
  2.357938e+01    9.507936e-01
  2.369051e+01    9.392154e-01
  2.380164e+01    9.004477e-01
  2.391277e+01    8.888865e-01
  2.402390e+01    8.889397e-01
  2.413503e+01    8.814260e-01
  2.424616e+01    8.540233e-01
  2.435729e+01    8.700160e-01
  2.446842e+01    8.774181e-01
  2.457954e+01    8.741459e-01
  2.469067e+01    8.913400e-01
  2.480180e+01    8.696708e-01
  2.491293e+01    8.563197e-01
  2.502406e+01    8.952104e-01
  2.513519e+01    9.040152e-01
  2.524632e+01    9.422172e-01
  2.535745e+01    9.673731e-01
  2.546858e+01    1.040053e+00
  2.557971e+01    1.142289e+00
  2.569083e+01    1.490124e+00
  2.580196e+01    2.734875e+00
  2.591309e+01    6.213899e+00
  2.602422e+01    5.343865e+00
  2.613535e+01    2.158350e+00
  2.624648e+01    1.356089e+00
  2.635761e+01    1.095434e+00
  2.646874e+01    1.007368e+00
  2.657987e+01    9.818686e-01
  2.669100e+01    9.567466e-01
  2.680212e+01    9.733284e-01
  2.691325e+01    9.901773e-01
  2.702438e+01    1.120585e+00
  2.713551e+01    1.708350e+00
  2.724664e+01    2.090471e+00
  2.735777e+01    1.277101e+00
  2.746890e+01    1.021898e+00
  2.758003e+01    9.475458e-01
  2.769116e+01    8.966067e-01
  2.780229e+01    8.817659e-01
  2.791342e+01    8.536125e-01
  2.802454e+01    8.455073e-01
  2.813567e+01    8.444552e-01
  2.824680e+01    8.436739e-01
  2.835793e+01    8.270180e-01
  2.846906e+01    8.348757e-01
  2.858019e+01    8.153297e-01
  2.869132e+01    8.116990e-01
  2.880245e+01    8.370121e-01
  2.891358e+01    8.005969e-01
  2.902471e+01    8.116573e-01
  2.913583e+01    8.179921e-01
  2.924696e+01    8.104175e-01
  2.935809e+01    7.993889e-01
  2.946922e+01    8.193634e-01
  2.958035e+01    7.901141e-01
  2.969148e+01    8.032972e-01
  2.980261e+01    7.886831e-01
  2.991374e+01    7.726545e-01
  3.002487e+01    8.056098e-01
  3.013600e+01    7.631225e-01
  3.024712e+01    7.811630e-01
  3.035825e+01    7.996296e-01
  3.046938e+01    7.618930e-01
  3.058051e+01    7.779561e-01
  3.069164e+01    7.728769e-01
  3.080277e+01    7.864608e-01
  3.091390e+01    7.754410e-01
  3.102503e+01    7.586544e-01
  3.113616e+01    7.724034e-01
  3.124729e+01    7.613547e-01
  3.135841e+01    7.975852e-01
  3.146954e+01    8.108420e-01
  3.158067e+01    8.529409e-01
  3.169180e+01    9.764606e-01
  3.180293e+01    1.427633e+00
  3.191406e+01    2.085305e+00
  3.202519e+01    1.330111e+00
  3.213632e+01    9.347122e-01
  3.224745e+01    8.304886e-01
  3.235858e+01    7.770757e-01
  3.246970e+01    7.754173e-01
  3.254908e+01    7.497045e-01