Folder: myspot_2024_07/XRD/Reaction conditions (part 40)

File: 2024-07-27_003_Ru-CGO-ex_Reaction_dwell_000023_data_000104.dat
# == pyFAI calibration ==
# Distance Sample to Detector: 0.4 m
# PONI: 9.750e-02, 1.135e-01 m
# Rotations: -0.000175 0.000000 -0.000000 rad
#
# == Fit2d calibration ==
# Distance Sample-beamCenter: 400.000 mm
# Center: x=1514.000, y=1300.000 pix
# Tilt: 0.010 deg  TiltPlanRot: 0.010 deg
#
# Detector Detector	 Spline= None	 PixelSize= 7.500e-05, 7.500e-05 m
#    Detector has a mask: False
#    Detector has a dark current: False
#    detector has a flat field: False
#
# Wavelength: 6.888e-11 m
# Mask applied: user provided
# Dark current applied: False
# Flat field applied: False
# Polarization factor: 0.99
# Normalization factor: 1.0
# --> /home/myspot/data/2024_07_Rosario/Ru-CGO-ex/2024-07-27_003_Ru-CGO-ex_Reaction_dwell_000023_data_000104.dat
#       q_nm^-1             I
  2.003187e-02    0.000000e+00
  1.311609e-01    2.371467e-02
  2.422899e-01    4.983423e-02
  3.534189e-01    5.904954e-02
  4.645479e-01    3.900738e-02
  5.756770e-01    4.538373e-02
  6.868060e-01    4.343649e-02
  7.979350e-01    1.563807e-01
  9.090640e-01    6.527181e-01
  1.020193e+00    1.333573e+00
  1.131322e+00    1.628923e+00
  1.242451e+00    2.352904e+00
  1.353580e+00    2.667893e+00
  1.464709e+00    3.103387e+00
  1.575838e+00    3.294838e+00
  1.686967e+00    3.258168e+00
  1.798096e+00    3.153314e+00
  1.909225e+00    3.081427e+00
  2.020354e+00    3.098731e+00
  2.131483e+00    3.073964e+00
  2.242612e+00    3.135561e+00
  2.353741e+00    3.082944e+00
  2.464870e+00    3.095624e+00
  2.575999e+00    3.078791e+00
  2.687128e+00    3.324893e+00
  2.798257e+00    3.343349e+00
  2.909386e+00    3.260114e+00
  3.020515e+00    3.350206e+00
  3.131644e+00    3.461490e+00
  3.242773e+00    3.378034e+00
  3.353902e+00    3.444517e+00
  3.465031e+00    3.490267e+00
  3.576160e+00    3.489087e+00
  3.687289e+00    3.418389e+00
  3.798418e+00    3.548551e+00
  3.909547e+00    3.529656e+00
  4.020676e+00    3.450811e+00
  4.131806e+00    3.550423e+00
  4.242935e+00    3.579106e+00
  4.354064e+00    3.643276e+00
  4.465193e+00    3.666363e+00
  4.576322e+00    3.608855e+00
  4.687451e+00    3.637256e+00
  4.798580e+00    3.650220e+00
  4.909709e+00    3.738346e+00
  5.020838e+00    3.588987e+00
  5.131967e+00    3.605263e+00
  5.243096e+00    3.704521e+00
  5.354225e+00    3.664129e+00
  5.465354e+00    3.593584e+00
  5.576483e+00    3.589878e+00
  5.687612e+00    3.564077e+00
  5.798741e+00    3.586469e+00
  5.909870e+00    3.561118e+00
  6.020999e+00    3.459054e+00
  6.132128e+00    3.552763e+00
  6.243257e+00    3.599002e+00
  6.354386e+00    3.579675e+00
  6.465515e+00    3.569988e+00
  6.576644e+00    3.502160e+00
  6.687773e+00    3.585401e+00
  6.798902e+00    3.534322e+00
  6.910031e+00    3.542170e+00
  7.021160e+00    3.568967e+00
  7.132289e+00    3.543895e+00
  7.243418e+00    3.495735e+00
  7.354547e+00    3.537840e+00
  7.465676e+00    3.497658e+00
  7.576805e+00    3.508661e+00
  7.687934e+00    3.471131e+00
  7.799063e+00    3.538748e+00
  7.910192e+00    3.426530e+00
  8.021321e+00    3.430107e+00
  8.132450e+00    3.404536e+00
  8.243579e+00    3.538185e+00
  8.354708e+00    3.388214e+00
  8.465837e+00    3.434019e+00
  8.576966e+00    3.403186e+00
  8.688095e+00    3.424108e+00
  8.799224e+00    3.333781e+00
  8.910353e+00    3.248092e+00
  9.021482e+00    3.304841e+00
  9.132611e+00    3.312508e+00
  9.243740e+00    3.268387e+00
  9.354869e+00    3.245447e+00
  9.465998e+00    3.299407e+00
  9.577127e+00    3.263127e+00
  9.688256e+00    3.205497e+00
  9.799385e+00    3.131835e+00
  9.910514e+00    3.145089e+00
  1.002164e+01    3.067730e+00
  1.013277e+01    3.168357e+00
  1.024390e+01    2.993506e+00
  1.035503e+01    2.977281e+00
  1.046616e+01    3.027965e+00
  1.057729e+01    2.983080e+00
  1.068842e+01    2.971678e+00
  1.079955e+01    2.995253e+00
  1.091068e+01    2.955017e+00
  1.102180e+01    2.846351e+00
  1.113293e+01    2.877173e+00
  1.124406e+01    2.837488e+00
  1.135519e+01    2.814350e+00
  1.146632e+01    2.829597e+00
  1.157745e+01    2.759658e+00
  1.168858e+01    2.793153e+00
  1.179971e+01    2.766856e+00
  1.191084e+01    2.789963e+00
  1.202197e+01    2.769978e+00
  1.213309e+01    2.751229e+00
  1.224422e+01    2.698178e+00
  1.235535e+01    2.676439e+00
  1.246648e+01    2.687653e+00
  1.257761e+01    2.695971e+00
  1.268874e+01    2.818271e+00
  1.279987e+01    3.012530e+00
  1.291100e+01    3.685619e+00
  1.302213e+01    6.752502e+00
  1.313326e+01    1.490109e+01
  1.324438e+01    1.070818e+01
  1.335551e+01    4.432753e+00
  1.346664e+01    3.148156e+00
  1.357777e+01    2.687939e+00
  1.368890e+01    2.573609e+00
  1.380003e+01    2.477379e+00
  1.391116e+01    2.410819e+00
  1.402229e+01    2.310144e+00
  1.413342e+01    2.318662e+00
  1.424455e+01    2.285405e+00
  1.435568e+01    2.235274e+00
  1.446680e+01    2.248760e+00
  1.457793e+01    2.217119e+00
  1.468906e+01    2.224355e+00
  1.480019e+01    2.199377e+00
  1.491132e+01    2.232038e+00
  1.502245e+01    2.468146e+00
  1.513358e+01    3.788840e+00
  1.524471e+01    5.784528e+00
  1.535584e+01    3.805491e+00
  1.546697e+01    2.436991e+00
  1.557809e+01    2.130348e+00
  1.568922e+01    2.050001e+00
  1.580035e+01    1.959710e+00
  1.591148e+01    1.916168e+00
  1.602261e+01    1.897219e+00
  1.613374e+01    1.810051e+00
  1.624487e+01    1.787920e+00
  1.635600e+01    1.762448e+00
  1.646713e+01    1.769345e+00
  1.657826e+01    1.735065e+00
  1.668938e+01    1.752485e+00
  1.680051e+01    1.687101e+00
  1.691164e+01    1.659416e+00
  1.702277e+01    1.679934e+00
  1.713390e+01    1.626653e+00
  1.724503e+01    1.655875e+00
  1.735616e+01    1.603168e+00
  1.746729e+01    1.570074e+00
  1.757842e+01    1.577714e+00
  1.768955e+01    1.555059e+00
  1.780067e+01    1.556582e+00
  1.791180e+01    1.548259e+00
  1.802293e+01    1.512684e+00
  1.813406e+01    1.505950e+00
  1.824519e+01    1.476459e+00
  1.835632e+01    1.491997e+00
  1.846745e+01    1.438217e+00
  1.857858e+01    1.464443e+00
  1.868971e+01    1.409209e+00
  1.880084e+01    1.414753e+00
  1.891196e+01    1.400540e+00
  1.902309e+01    1.377807e+00
  1.913422e+01    1.391268e+00
  1.924535e+01    1.365251e+00
  1.935648e+01    1.326709e+00
  1.946761e+01    1.327325e+00
  1.957874e+01    1.320281e+00
  1.968987e+01    1.310896e+00
  1.980100e+01    1.301727e+00
  1.991213e+01    1.307475e+00
  2.002325e+01    1.294190e+00
  2.013438e+01    1.260175e+00
  2.024551e+01    1.286657e+00
  2.035664e+01    1.232359e+00
  2.046777e+01    1.238186e+00
  2.057890e+01    1.236908e+00
  2.069003e+01    1.258803e+00
  2.080116e+01    1.224521e+00
  2.091229e+01    1.243016e+00
  2.102342e+01    1.222907e+00
  2.113455e+01    1.212808e+00
  2.124567e+01    1.257154e+00
  2.135680e+01    1.287256e+00
  2.146793e+01    1.361281e+00
  2.157906e+01    1.615889e+00
  2.169019e+01    2.508818e+00
  2.180132e+01    5.887434e+00
  2.191245e+01    8.752769e+00
  2.202358e+01    3.628027e+00
  2.213471e+01    1.866294e+00
  2.224584e+01    1.414275e+00
  2.235696e+01    1.244186e+00
  2.246809e+01    1.168507e+00
  2.257922e+01    1.120054e+00
  2.269035e+01    1.038337e+00
  2.280148e+01    1.050820e+00
  2.291261e+01    1.034209e+00
  2.302374e+01    1.048666e+00
  2.313487e+01    1.001186e+00
  2.324600e+01    9.972309e-01
  2.335713e+01    9.554294e-01
  2.346825e+01    9.675498e-01
  2.357938e+01    9.405672e-01
  2.369051e+01    9.245687e-01
  2.380164e+01    9.192235e-01
  2.391277e+01    9.051012e-01
  2.402390e+01    9.014165e-01
  2.413503e+01    8.943569e-01
  2.424616e+01    8.716497e-01
  2.435729e+01    8.980728e-01
  2.446842e+01    8.835841e-01
  2.457954e+01    9.008993e-01
  2.469067e+01    9.071432e-01
  2.480180e+01    8.952086e-01
  2.491293e+01    8.801507e-01
  2.502406e+01    9.259481e-01
  2.513519e+01    9.114324e-01
  2.524632e+01    9.431524e-01
  2.535745e+01    9.658659e-01
  2.546858e+01    1.021841e+00
  2.557971e+01    1.139493e+00
  2.569083e+01    1.499411e+00
  2.580196e+01    2.804732e+00
  2.591309e+01    6.393063e+00
  2.602422e+01    5.266837e+00
  2.613535e+01    2.146549e+00
  2.624648e+01    1.347097e+00
  2.635761e+01    1.081268e+00
  2.646874e+01    1.024171e+00
  2.657987e+01    9.778148e-01
  2.669100e+01    9.609578e-01
  2.680212e+01    9.910390e-01
  2.691325e+01    1.019050e+00
  2.702438e+01    1.132910e+00
  2.713551e+01    1.748183e+00
  2.724664e+01    2.100550e+00
  2.735777e+01    1.276324e+00
  2.746890e+01    1.014017e+00
  2.758003e+01    9.276685e-01
  2.769116e+01    9.060781e-01
  2.780229e+01    8.700218e-01
  2.791342e+01    8.670901e-01
  2.802454e+01    8.655975e-01
  2.813567e+01    8.769043e-01
  2.824680e+01    8.581281e-01
  2.835793e+01    8.315551e-01
  2.846906e+01    8.543810e-01
  2.858019e+01    8.344284e-01
  2.869132e+01    8.113219e-01
  2.880245e+01    8.250273e-01
  2.891358e+01    8.168265e-01
  2.902471e+01    8.159186e-01
  2.913583e+01    8.405011e-01
  2.924696e+01    8.121282e-01
  2.935809e+01    8.143911e-01
  2.946922e+01    8.084863e-01
  2.958035e+01    7.944757e-01
  2.969148e+01    8.237996e-01
  2.980261e+01    8.043472e-01
  2.991374e+01    7.931477e-01
  3.002487e+01    8.237821e-01
  3.013600e+01    8.055422e-01
  3.024712e+01    8.040837e-01
  3.035825e+01    7.783645e-01
  3.046938e+01    7.596567e-01
  3.058051e+01    7.665144e-01
  3.069164e+01    7.845521e-01
  3.080277e+01    7.942251e-01
  3.091390e+01    7.879720e-01
  3.102503e+01    7.795420e-01
  3.113616e+01    8.153341e-01
  3.124729e+01    7.794001e-01
  3.135841e+01    7.928784e-01
  3.146954e+01    8.307657e-01
  3.158067e+01    8.504820e-01
  3.169180e+01    9.947800e-01
  3.180293e+01    1.471182e+00
  3.191406e+01    2.067625e+00
  3.202519e+01    1.279865e+00
  3.213632e+01    9.411865e-01
  3.224745e+01    8.254522e-01
  3.235858e+01    8.001871e-01
  3.246970e+01    7.858016e-01
  3.254908e+01    7.792428e-01

File: 2024-07-27_003_Ru-CGO-ex_Reaction_dwell_000023_data_000105.dat
# == pyFAI calibration ==
# Distance Sample to Detector: 0.4 m
# PONI: 9.750e-02, 1.135e-01 m
# Rotations: -0.000175 0.000000 -0.000000 rad
#
# == Fit2d calibration ==
# Distance Sample-beamCenter: 400.000 mm
# Center: x=1514.000, y=1300.000 pix
# Tilt: 0.010 deg  TiltPlanRot: 0.010 deg
#
# Detector Detector	 Spline= None	 PixelSize= 7.500e-05, 7.500e-05 m
#    Detector has a mask: False
#    Detector has a dark current: False
#    detector has a flat field: False
#
# Wavelength: 6.888e-11 m
# Mask applied: user provided
# Dark current applied: False
# Flat field applied: False
# Polarization factor: 0.99
# Normalization factor: 1.0
# --> /home/myspot/data/2024_07_Rosario/Ru-CGO-ex/2024-07-27_003_Ru-CGO-ex_Reaction_dwell_000023_data_000105.dat
#       q_nm^-1             I
  2.003187e-02    2.226973e-02
  1.311609e-01    3.343998e-02
  2.422899e-01    2.210628e-02
  3.534189e-01    7.897501e-02
  4.645479e-01    5.199990e-02
  5.756770e-01    4.456270e-02
  6.868060e-01    3.920851e-02
  7.979350e-01    1.500080e-01
  9.090640e-01    6.535230e-01
  1.020193e+00    1.277320e+00
  1.131322e+00    1.578902e+00
  1.242451e+00    2.403716e+00
  1.353580e+00    2.778066e+00
  1.464709e+00    3.032670e+00
  1.575838e+00    3.186423e+00
  1.686967e+00    3.133568e+00
  1.798096e+00    3.024948e+00
  1.909225e+00    3.048579e+00
  2.020354e+00    3.362225e+00
  2.131483e+00    2.981508e+00
  2.242612e+00    3.172899e+00
  2.353741e+00    3.192248e+00
  2.464870e+00    3.109887e+00
  2.575999e+00    3.254878e+00
  2.687128e+00    3.173762e+00
  2.798257e+00    3.366397e+00
  2.909386e+00    3.237671e+00
  3.020515e+00    3.396390e+00
  3.131644e+00    3.321727e+00
  3.242773e+00    3.293915e+00
  3.353902e+00    3.448947e+00
  3.465031e+00    3.435664e+00
  3.576160e+00    3.540406e+00
  3.687289e+00    3.531850e+00
  3.798418e+00    3.479186e+00
  3.909547e+00    3.546793e+00
  4.020676e+00    3.508956e+00
  4.131806e+00    3.520788e+00
  4.242935e+00    3.542274e+00
  4.354064e+00    3.636696e+00
  4.465193e+00    3.648698e+00
  4.576322e+00    3.618577e+00
  4.687451e+00    3.645450e+00
  4.798580e+00    3.633871e+00
  4.909709e+00    3.633591e+00
  5.020838e+00    3.633319e+00
  5.131967e+00    3.749698e+00
  5.243096e+00    3.690031e+00
  5.354225e+00    3.619467e+00
  5.465354e+00    3.674452e+00
  5.576483e+00    3.528134e+00
  5.687612e+00    3.554461e+00
  5.798741e+00    3.618471e+00
  5.909870e+00    3.516636e+00
  6.020999e+00    3.472185e+00
  6.132128e+00    3.558065e+00
  6.243257e+00    3.572065e+00
  6.354386e+00    3.545744e+00
  6.465515e+00    3.619559e+00
  6.576644e+00    3.527904e+00
  6.687773e+00    3.604742e+00
  6.798902e+00    3.525678e+00
  6.910031e+00    3.575337e+00
  7.021160e+00    3.500825e+00
  7.132289e+00    3.513400e+00
  7.243418e+00    3.534738e+00
  7.354547e+00    3.485480e+00
  7.465676e+00    3.474108e+00
  7.576805e+00    3.507069e+00
  7.687934e+00    3.493340e+00
  7.799063e+00    3.500674e+00
  7.910192e+00    3.421604e+00
  8.021321e+00    3.375277e+00
  8.132450e+00    3.426143e+00
  8.243579e+00    3.464319e+00
  8.354708e+00    3.380726e+00
  8.465837e+00    3.392646e+00
  8.576966e+00    3.357401e+00
  8.688095e+00    3.354462e+00
  8.799224e+00    3.345922e+00
  8.910353e+00    3.315530e+00
  9.021482e+00    3.317354e+00
  9.132611e+00    3.266612e+00
  9.243740e+00    3.270862e+00
  9.354869e+00    3.216222e+00
  9.465998e+00    3.206517e+00
  9.577127e+00    3.153340e+00
  9.688256e+00    3.192286e+00
  9.799385e+00    3.130820e+00
  9.910514e+00    3.124964e+00
  1.002164e+01    3.113257e+00
  1.013277e+01    3.138269e+00
  1.024390e+01    3.052490e+00
  1.035503e+01    3.027092e+00
  1.046616e+01    2.998516e+00
  1.057729e+01    2.981979e+00
  1.068842e+01    2.997988e+00
  1.079955e+01    2.955313e+00
  1.091068e+01    2.957984e+00
  1.102180e+01    2.887133e+00
  1.113293e+01    2.876553e+00
  1.124406e+01    2.906046e+00
  1.135519e+01    2.851972e+00
  1.146632e+01    2.835109e+00
  1.157745e+01    2.796207e+00
  1.168858e+01    2.756821e+00
  1.179971e+01    2.746929e+00
  1.191084e+01    2.748615e+00
  1.202197e+01    2.693965e+00
  1.213309e+01    2.666111e+00
  1.224422e+01    2.707341e+00
  1.235535e+01    2.682765e+00
  1.246648e+01    2.714156e+00
  1.257761e+01    2.711163e+00
  1.268874e+01    2.840845e+00
  1.279987e+01    2.996472e+00
  1.291100e+01    3.639835e+00
  1.302213e+01    6.735810e+00
  1.313326e+01    1.497873e+01
  1.324438e+01    1.058688e+01
  1.335551e+01    4.405197e+00
  1.346664e+01    3.135403e+00
  1.357777e+01    2.728635e+00
  1.368890e+01    2.615327e+00
  1.380003e+01    2.473388e+00
  1.391116e+01    2.377289e+00
  1.402229e+01    2.318949e+00
  1.413342e+01    2.310166e+00
  1.424455e+01    2.248730e+00
  1.435568e+01    2.255495e+00
  1.446680e+01    2.221814e+00
  1.457793e+01    2.185896e+00
  1.468906e+01    2.210991e+00
  1.480019e+01    2.257977e+00
  1.491132e+01    2.307513e+00
  1.502245e+01    2.521902e+00
  1.513358e+01    3.862351e+00
  1.524471e+01    5.829694e+00
  1.535584e+01    3.789972e+00
  1.546697e+01    2.401114e+00
  1.557809e+01    2.116260e+00
  1.568922e+01    2.043401e+00
  1.580035e+01    1.927452e+00
  1.591148e+01    1.865871e+00
  1.602261e+01    1.870801e+00
  1.613374e+01    1.882480e+00
  1.624487e+01    1.772210e+00
  1.635600e+01    1.871927e+00
  1.646713e+01    1.754950e+00
  1.657826e+01    1.757230e+00
  1.668938e+01    1.761573e+00
  1.680051e+01    1.727020e+00
  1.691164e+01    1.691875e+00
  1.702277e+01    1.650939e+00
  1.713390e+01    1.637711e+00
  1.724503e+01    1.634397e+00
  1.735616e+01    1.585657e+00
  1.746729e+01    1.616860e+00
  1.757842e+01    1.572644e+00
  1.768955e+01    1.572033e+00
  1.780067e+01    1.525523e+00
  1.791180e+01    1.555088e+00
  1.802293e+01    1.490119e+00
  1.813406e+01    1.484250e+00
  1.824519e+01    1.460915e+00
  1.835632e+01    1.446953e+00
  1.846745e+01    1.433598e+00
  1.857858e+01    1.452640e+00
  1.868971e+01    1.430061e+00
  1.880084e+01    1.399365e+00
  1.891196e+01    1.362456e+00
  1.902309e+01    1.382516e+00
  1.913422e+01    1.384053e+00
  1.924535e+01    1.379806e+00
  1.935648e+01    1.340791e+00
  1.946761e+01    1.331987e+00
  1.957874e+01    1.337861e+00
  1.968987e+01    1.335172e+00
  1.980100e+01    1.299698e+00
  1.991213e+01    1.286511e+00
  2.002325e+01    1.285986e+00
  2.013438e+01    1.269210e+00
  2.024551e+01    1.246259e+00
  2.035664e+01    1.258038e+00
  2.046777e+01    1.249245e+00
  2.057890e+01    1.238340e+00
  2.069003e+01    1.235478e+00
  2.080116e+01    1.236502e+00
  2.091229e+01    1.228272e+00
  2.102342e+01    1.245428e+00
  2.113455e+01    1.208388e+00
  2.124567e+01    1.270205e+00
  2.135680e+01    1.260733e+00
  2.146793e+01    1.370593e+00
  2.157906e+01    1.615219e+00
  2.169019e+01    2.560969e+00
  2.180132e+01    5.921006e+00
  2.191245e+01    8.726214e+00
  2.202358e+01    3.572695e+00
  2.213471e+01    1.857588e+00
  2.224584e+01    1.397333e+00
  2.235696e+01    1.252965e+00
  2.246809e+01    1.150550e+00
  2.257922e+01    1.120577e+00
  2.269035e+01    1.094325e+00
  2.280148e+01    1.063289e+00
  2.291261e+01    1.052979e+00
  2.302374e+01    1.023718e+00
  2.313487e+01    1.009986e+00
  2.324600e+01    9.758502e-01
  2.335713e+01    9.779540e-01
  2.346825e+01    9.355279e-01
  2.357938e+01    9.619203e-01
  2.369051e+01    9.204201e-01
  2.380164e+01    9.346718e-01
  2.391277e+01    9.012287e-01
  2.402390e+01    8.900097e-01
  2.413503e+01    8.821626e-01
  2.424616e+01    8.667464e-01
  2.435729e+01    9.113506e-01
  2.446842e+01    8.977008e-01
  2.457954e+01    8.777591e-01
  2.469067e+01    8.939701e-01
  2.480180e+01    8.753472e-01
  2.491293e+01    8.812498e-01
  2.502406e+01    8.916118e-01
  2.513519e+01    8.851291e-01
  2.524632e+01    9.301175e-01
  2.535745e+01    9.782879e-01
  2.546858e+01    1.026718e+00
  2.557971e+01    1.145715e+00
  2.569083e+01    1.530003e+00
  2.580196e+01    2.861964e+00
  2.591309e+01    6.480497e+00
  2.602422e+01    5.198438e+00
  2.613535e+01    2.106530e+00
  2.624648e+01    1.340922e+00
  2.635761e+01    1.101436e+00
  2.646874e+01    1.037872e+00
  2.657987e+01    1.007731e+00
  2.669100e+01    9.758719e-01
  2.680212e+01    9.854411e-01
  2.691325e+01    1.008528e+00
  2.702438e+01    1.173620e+00
  2.713551e+01    1.733227e+00
  2.724664e+01    2.053994e+00
  2.735777e+01    1.266413e+00
  2.746890e+01    1.022003e+00
  2.758003e+01    9.508129e-01
  2.769116e+01    9.147351e-01
  2.780229e+01    8.875394e-01
  2.791342e+01    8.901749e-01
  2.802454e+01    8.644490e-01
  2.813567e+01    8.593672e-01
  2.824680e+01    8.382118e-01
  2.835793e+01    8.592600e-01
  2.846906e+01    8.266543e-01
  2.858019e+01    8.379230e-01
  2.869132e+01    8.152391e-01
  2.880245e+01    8.148028e-01
  2.891358e+01    8.183724e-01
  2.902471e+01    8.209612e-01
  2.913583e+01    8.128510e-01
  2.924696e+01    8.054591e-01
  2.935809e+01    8.012044e-01
  2.946922e+01    8.053978e-01
  2.958035e+01    7.938303e-01
  2.969148e+01    8.044307e-01
  2.980261e+01    7.705204e-01
  2.991374e+01    7.912837e-01
  3.002487e+01    7.892043e-01
  3.013600e+01    7.880821e-01
  3.024712e+01    7.790323e-01
  3.035825e+01    7.946274e-01
  3.046938e+01    7.877736e-01
  3.058051e+01    7.868028e-01
  3.069164e+01    8.025821e-01
  3.080277e+01    7.594519e-01
  3.091390e+01    7.789774e-01
  3.102503e+01    7.737324e-01
  3.113616e+01    7.664816e-01
  3.124729e+01    7.979336e-01
  3.135841e+01    8.011906e-01
  3.146954e+01    8.285690e-01
  3.158067e+01    8.852247e-01
  3.169180e+01    9.787335e-01
  3.180293e+01    1.477947e+00
  3.191406e+01    2.121691e+00
  3.202519e+01    1.285309e+00
  3.213632e+01    9.369013e-01
  3.224745e+01    8.575719e-01
  3.235858e+01    7.852661e-01
  3.246970e+01    7.646923e-01
  3.254908e+01    7.879252e-01