Folder: myspot_2024_07/XRD/Reaction conditions (part 54)

File: 2024-07-27_003_Ru-CGO-ex_Reaction_dwell_000023_data_000136.dat
# == pyFAI calibration ==
# Distance Sample to Detector: 0.4 m
# PONI: 9.750e-02, 1.135e-01 m
# Rotations: -0.000175 0.000000 -0.000000 rad
#
# == Fit2d calibration ==
# Distance Sample-beamCenter: 400.000 mm
# Center: x=1514.000, y=1300.000 pix
# Tilt: 0.010 deg  TiltPlanRot: 0.010 deg
#
# Detector Detector	 Spline= None	 PixelSize= 7.500e-05, 7.500e-05 m
#    Detector has a mask: False
#    Detector has a dark current: False
#    detector has a flat field: False
#
# Wavelength: 6.888e-11 m
# Mask applied: user provided
# Dark current applied: False
# Flat field applied: False
# Polarization factor: 0.99
# Normalization factor: 1.0
# --> /home/myspot/data/2024_07_Rosario/Ru-CGO-ex/2024-07-27_003_Ru-CGO-ex_Reaction_dwell_000023_data_000136.dat
#       q_nm^-1             I
  2.003187e-02    1.424646e-01
  1.311609e-01    7.103863e-02
  2.422899e-01    1.117430e-02
  3.534189e-01    2.908122e-02
  4.645479e-01    3.060217e-02
  5.756770e-01    3.900434e-02
  6.868060e-01    5.128345e-02
  7.979350e-01    1.410064e-01
  9.090640e-01    5.603951e-01
  1.020193e+00    1.304884e+00
  1.131322e+00    1.579922e+00
  1.242451e+00    2.370256e+00
  1.353580e+00    2.879995e+00
  1.464709e+00    2.993010e+00
  1.575838e+00    3.176995e+00
  1.686967e+00    3.141188e+00
  1.798096e+00    3.066455e+00
  1.909225e+00    3.172365e+00
  2.020354e+00    3.115682e+00
  2.131483e+00    3.091873e+00
  2.242612e+00    3.081813e+00
  2.353741e+00    3.153934e+00
  2.464870e+00    3.221077e+00
  2.575999e+00    3.219373e+00
  2.687128e+00    3.263026e+00
  2.798257e+00    3.198286e+00
  2.909386e+00    3.260835e+00
  3.020515e+00    3.375551e+00
  3.131644e+00    3.373993e+00
  3.242773e+00    3.445096e+00
  3.353902e+00    3.356294e+00
  3.465031e+00    3.462871e+00
  3.576160e+00    3.394698e+00
  3.687289e+00    3.353258e+00
  3.798418e+00    3.434706e+00
  3.909547e+00    3.491624e+00
  4.020676e+00    3.456767e+00
  4.131806e+00    3.554490e+00
  4.242935e+00    3.462689e+00
  4.354064e+00    3.532296e+00
  4.465193e+00    3.576996e+00
  4.576322e+00    3.534082e+00
  4.687451e+00    3.632136e+00
  4.798580e+00    3.655012e+00
  4.909709e+00    3.628286e+00
  5.020838e+00    3.667126e+00
  5.131967e+00    3.650360e+00
  5.243096e+00    3.629562e+00
  5.354225e+00    3.676081e+00
  5.465354e+00    3.668008e+00
  5.576483e+00    3.603652e+00
  5.687612e+00    3.690585e+00
  5.798741e+00    3.580526e+00
  5.909870e+00    3.505949e+00
  6.020999e+00    3.610345e+00
  6.132128e+00    3.649598e+00
  6.243257e+00    3.685248e+00
  6.354386e+00    3.608428e+00
  6.465515e+00    3.487789e+00
  6.576644e+00    3.600245e+00
  6.687773e+00    3.438614e+00
  6.798902e+00    3.509576e+00
  6.910031e+00    3.555750e+00
  7.021160e+00    3.548354e+00
  7.132289e+00    3.455728e+00
  7.243418e+00    3.548339e+00
  7.354547e+00    3.497576e+00
  7.465676e+00    3.472034e+00
  7.576805e+00    3.436227e+00
  7.687934e+00    3.434003e+00
  7.799063e+00    3.491567e+00
  7.910192e+00    3.548127e+00
  8.021321e+00    3.474225e+00
  8.132450e+00    3.422936e+00
  8.243579e+00    3.485937e+00
  8.354708e+00    3.414298e+00
  8.465837e+00    3.356862e+00
  8.576966e+00    3.392769e+00
  8.688095e+00    3.327406e+00
  8.799224e+00    3.354066e+00
  8.910353e+00    3.297763e+00
  9.021482e+00    3.234945e+00
  9.132611e+00    3.338321e+00
  9.243740e+00    3.279312e+00
  9.354869e+00    3.295536e+00
  9.465998e+00    3.240904e+00
  9.577127e+00    3.227632e+00
  9.688256e+00    3.180459e+00
  9.799385e+00    3.139470e+00
  9.910514e+00    3.152068e+00
  1.002164e+01    3.074609e+00
  1.013277e+01    3.108254e+00
  1.024390e+01    3.111646e+00
  1.035503e+01    3.021401e+00
  1.046616e+01    3.079096e+00
  1.057729e+01    2.977821e+00
  1.068842e+01    2.970911e+00
  1.079955e+01    2.968423e+00
  1.091068e+01    2.982352e+00
  1.102180e+01    2.891107e+00
  1.113293e+01    2.846214e+00
  1.124406e+01    2.802271e+00
  1.135519e+01    2.842260e+00
  1.146632e+01    2.765384e+00
  1.157745e+01    2.807125e+00
  1.168858e+01    2.747926e+00
  1.179971e+01    2.716016e+00
  1.191084e+01    2.728739e+00
  1.202197e+01    2.705563e+00
  1.213309e+01    2.701178e+00
  1.224422e+01    2.651332e+00
  1.235535e+01    2.665019e+00
  1.246648e+01    2.724060e+00
  1.257761e+01    2.751010e+00
  1.268874e+01    2.832511e+00
  1.279987e+01    2.965943e+00
  1.291100e+01    3.633641e+00
  1.302213e+01    6.715616e+00
  1.313326e+01    1.483415e+01
  1.324438e+01    1.074400e+01
  1.335551e+01    4.514631e+00
  1.346664e+01    3.168350e+00
  1.357777e+01    2.764918e+00
  1.368890e+01    2.533179e+00
  1.380003e+01    2.481901e+00
  1.391116e+01    2.455215e+00
  1.402229e+01    2.358389e+00
  1.413342e+01    2.273537e+00
  1.424455e+01    2.267534e+00
  1.435568e+01    2.257321e+00
  1.446680e+01    2.229455e+00
  1.457793e+01    2.213843e+00
  1.468906e+01    2.220106e+00
  1.480019e+01    2.218443e+00
  1.491132e+01    2.270469e+00
  1.502245e+01    2.516210e+00
  1.513358e+01    3.771297e+00
  1.524471e+01    5.698857e+00
  1.535584e+01    3.763612e+00
  1.546697e+01    2.412443e+00
  1.557809e+01    2.141843e+00
  1.568922e+01    2.035823e+00
  1.580035e+01    1.925225e+00
  1.591148e+01    1.888843e+00
  1.602261e+01    1.911224e+00
  1.613374e+01    1.851688e+00
  1.624487e+01    1.832919e+00
  1.635600e+01    1.774880e+00
  1.646713e+01    1.735712e+00
  1.657826e+01    1.764246e+00
  1.668938e+01    1.717287e+00
  1.680051e+01    1.698787e+00
  1.691164e+01    1.686912e+00
  1.702277e+01    1.699030e+00
  1.713390e+01    1.644492e+00
  1.724503e+01    1.586953e+00
  1.735616e+01    1.602113e+00
  1.746729e+01    1.596981e+00
  1.757842e+01    1.573243e+00
  1.768955e+01    1.581564e+00
  1.780067e+01    1.560167e+00
  1.791180e+01    1.541162e+00
  1.802293e+01    1.496520e+00
  1.813406e+01    1.504617e+00
  1.824519e+01    1.466199e+00
  1.835632e+01    1.470520e+00
  1.846745e+01    1.441965e+00
  1.857858e+01    1.434289e+00
  1.868971e+01    1.407463e+00
  1.880084e+01    1.405349e+00
  1.891196e+01    1.398255e+00
  1.902309e+01    1.380670e+00
  1.913422e+01    1.392651e+00
  1.924535e+01    1.374577e+00
  1.935648e+01    1.372861e+00
  1.946761e+01    1.332049e+00
  1.957874e+01    1.329811e+00
  1.968987e+01    1.308418e+00
  1.980100e+01    1.300144e+00
  1.991213e+01    1.291788e+00
  2.002325e+01    1.268283e+00
  2.013438e+01    1.271875e+00
  2.024551e+01    1.280060e+00
  2.035664e+01    1.271260e+00
  2.046777e+01    1.243360e+00
  2.057890e+01    1.226395e+00
  2.069003e+01    1.250977e+00
  2.080116e+01    1.248937e+00
  2.091229e+01    1.245365e+00
  2.102342e+01    1.238516e+00
  2.113455e+01    1.219957e+00
  2.124567e+01    1.236264e+00
  2.135680e+01    1.287105e+00
  2.146793e+01    1.372675e+00
  2.157906e+01    1.598993e+00
  2.169019e+01    2.488422e+00
  2.180132e+01    5.820560e+00
  2.191245e+01    8.716698e+00
  2.202358e+01    3.628431e+00
  2.213471e+01    1.873772e+00
  2.224584e+01    1.429668e+00
  2.235696e+01    1.243448e+00
  2.246809e+01    1.161362e+00
  2.257922e+01    1.114671e+00
  2.269035e+01    1.090504e+00
  2.280148e+01    1.046332e+00
  2.291261e+01    1.015241e+00
  2.302374e+01    1.047444e+00
  2.313487e+01    1.009785e+00
  2.324600e+01    1.008535e+00
  2.335713e+01    9.754639e-01
  2.346825e+01    9.519743e-01
  2.357938e+01    9.580780e-01
  2.369051e+01    9.458743e-01
  2.380164e+01    9.278264e-01
  2.391277e+01    9.099272e-01
  2.402390e+01    8.832406e-01
  2.413503e+01    8.868222e-01
  2.424616e+01    8.829219e-01
  2.435729e+01    8.927443e-01
  2.446842e+01    8.835301e-01
  2.457954e+01    8.784657e-01
  2.469067e+01    8.856210e-01
  2.480180e+01    8.908950e-01
  2.491293e+01    8.800077e-01
  2.502406e+01    9.060454e-01
  2.513519e+01    9.058942e-01
  2.524632e+01    9.400311e-01
  2.535745e+01    9.741156e-01
  2.546858e+01    1.014310e+00
  2.557971e+01    1.173378e+00
  2.569083e+01    1.495228e+00
  2.580196e+01    2.821469e+00
  2.591309e+01    6.307973e+00
  2.602422e+01    5.279438e+00
  2.613535e+01    2.099874e+00
  2.624648e+01    1.332166e+00
  2.635761e+01    1.090768e+00
  2.646874e+01    1.010813e+00
  2.657987e+01    1.002265e+00
  2.669100e+01    9.547247e-01
  2.680212e+01    9.915575e-01
  2.691325e+01    1.002511e+00
  2.702438e+01    1.142632e+00
  2.713551e+01    1.749133e+00
  2.724664e+01    2.081998e+00
  2.735777e+01    1.285830e+00
  2.746890e+01    1.002544e+00
  2.758003e+01    9.387302e-01
  2.769116e+01    9.143183e-01
  2.780229e+01    8.916388e-01
  2.791342e+01    8.809971e-01
  2.802454e+01    8.786567e-01
  2.813567e+01    8.678726e-01
  2.824680e+01    8.477881e-01
  2.835793e+01    8.438807e-01
  2.846906e+01    8.667996e-01
  2.858019e+01    8.333985e-01
  2.869132e+01    8.176949e-01
  2.880245e+01    8.305405e-01
  2.891358e+01    8.245705e-01
  2.902471e+01    8.136778e-01
  2.913583e+01    8.173450e-01
  2.924696e+01    7.992609e-01
  2.935809e+01    8.070930e-01
  2.946922e+01    8.061492e-01
  2.958035e+01    7.982014e-01
  2.969148e+01    8.035507e-01
  2.980261e+01    7.986528e-01
  2.991374e+01    8.030062e-01
  3.002487e+01    7.986633e-01
  3.013600e+01    7.946240e-01
  3.024712e+01    7.844877e-01
  3.035825e+01    7.982956e-01
  3.046938e+01    7.899505e-01
  3.058051e+01    7.925693e-01
  3.069164e+01    7.994213e-01
  3.080277e+01    7.902504e-01
  3.091390e+01    7.908989e-01
  3.102503e+01    7.831898e-01
  3.113616e+01    7.986739e-01
  3.124729e+01    7.954304e-01
  3.135841e+01    8.054917e-01
  3.146954e+01    7.855923e-01
  3.158067e+01    8.742689e-01
  3.169180e+01    9.723678e-01
  3.180293e+01    1.460575e+00
  3.191406e+01    2.102061e+00
  3.202519e+01    1.297204e+00
  3.213632e+01    9.488283e-01
  3.224745e+01    8.186445e-01
  3.235858e+01    8.124003e-01
  3.246970e+01    7.711208e-01
  3.254908e+01    7.762716e-01

File: 2024-07-27_003_Ru-CGO-ex_Reaction_dwell_000023_data_000137.dat
# == pyFAI calibration ==
# Distance Sample to Detector: 0.4 m
# PONI: 9.750e-02, 1.135e-01 m
# Rotations: -0.000175 0.000000 -0.000000 rad
#
# == Fit2d calibration ==
# Distance Sample-beamCenter: 400.000 mm
# Center: x=1514.000, y=1300.000 pix
# Tilt: 0.010 deg  TiltPlanRot: 0.010 deg
#
# Detector Detector	 Spline= None	 PixelSize= 7.500e-05, 7.500e-05 m
#    Detector has a mask: False
#    Detector has a dark current: False
#    detector has a flat field: False
#
# Wavelength: 6.888e-11 m
# Mask applied: user provided
# Dark current applied: False
# Flat field applied: False
# Polarization factor: 0.99
# Normalization factor: 1.0
# --> /home/myspot/data/2024_07_Rosario/Ru-CGO-ex/2024-07-27_003_Ru-CGO-ex_Reaction_dwell_000023_data_000137.dat
#       q_nm^-1             I
  2.003187e-02    2.849293e-01
  1.311609e-01    6.267555e-02
  2.422899e-01    2.484329e-02
  3.534189e-01    7.003633e-02
  4.645479e-01    1.116055e-02
  5.756770e-01    3.461646e-02
  6.868060e-01    8.224879e-02
  7.979350e-01    1.576746e-01
  9.090640e-01    6.428611e-01
  1.020193e+00    1.347066e+00
  1.131322e+00    1.576040e+00
  1.242451e+00    2.267865e+00
  1.353580e+00    2.869268e+00
  1.464709e+00    2.990360e+00
  1.575838e+00    2.871887e+00
  1.686967e+00    3.159834e+00
  1.798096e+00    3.015181e+00
  1.909225e+00    3.019974e+00
  2.020354e+00    3.052436e+00
  2.131483e+00    3.082895e+00
  2.242612e+00    3.141140e+00
  2.353741e+00    3.131841e+00
  2.464870e+00    3.197824e+00
  2.575999e+00    3.206489e+00
  2.687128e+00    3.279201e+00
  2.798257e+00    3.225911e+00
  2.909386e+00    3.300960e+00
  3.020515e+00    3.273553e+00
  3.131644e+00    3.299100e+00
  3.242773e+00    3.513663e+00
  3.353902e+00    3.358430e+00
  3.465031e+00    3.425928e+00
  3.576160e+00    3.473792e+00
  3.687289e+00    3.483727e+00
  3.798418e+00    3.570739e+00
  3.909547e+00    3.494318e+00
  4.020676e+00    3.462788e+00
  4.131806e+00    3.495529e+00
  4.242935e+00    3.612771e+00
  4.354064e+00    3.560570e+00
  4.465193e+00    3.645466e+00
  4.576322e+00    3.701590e+00
  4.687451e+00    3.691935e+00
  4.798580e+00    3.686490e+00
  4.909709e+00    3.653152e+00
  5.020838e+00    3.566878e+00
  5.131967e+00    3.631246e+00
  5.243096e+00    3.580053e+00
  5.354225e+00    3.683175e+00
  5.465354e+00    3.706384e+00
  5.576483e+00    3.548030e+00
  5.687612e+00    3.570199e+00
  5.798741e+00    3.517721e+00
  5.909870e+00    3.538304e+00
  6.020999e+00    3.618095e+00
  6.132128e+00    3.612664e+00
  6.243257e+00    3.568675e+00
  6.354386e+00    3.554256e+00
  6.465515e+00    3.470354e+00
  6.576644e+00    3.537067e+00
  6.687773e+00    3.666703e+00
  6.798902e+00    3.512618e+00
  6.910031e+00    3.551608e+00
  7.021160e+00    3.587846e+00
  7.132289e+00    3.488938e+00
  7.243418e+00    3.461950e+00
  7.354547e+00    3.509122e+00
  7.465676e+00    3.460449e+00
  7.576805e+00    3.481635e+00
  7.687934e+00    3.438456e+00
  7.799063e+00    3.418551e+00
  7.910192e+00    3.529592e+00
  8.021321e+00    3.479889e+00
  8.132450e+00    3.457799e+00
  8.243579e+00    3.495760e+00
  8.354708e+00    3.395860e+00
  8.465837e+00    3.407511e+00
  8.576966e+00    3.369848e+00
  8.688095e+00    3.409660e+00
  8.799224e+00    3.306297e+00
  8.910353e+00    3.296987e+00
  9.021482e+00    3.293692e+00
  9.132611e+00    3.207827e+00
  9.243740e+00    3.174167e+00
  9.354869e+00    3.198079e+00
  9.465998e+00    3.233841e+00
  9.577127e+00    3.185360e+00
  9.688256e+00    3.193633e+00
  9.799385e+00    3.171453e+00
  9.910514e+00    3.144752e+00
  1.002164e+01    3.082189e+00
  1.013277e+01    3.111593e+00
  1.024390e+01    3.098210e+00
  1.035503e+01    3.031399e+00
  1.046616e+01    3.055025e+00
  1.057729e+01    2.999550e+00
  1.068842e+01    2.988952e+00
  1.079955e+01    2.971460e+00
  1.091068e+01    2.902092e+00
  1.102180e+01    2.894514e+00
  1.113293e+01    2.902184e+00
  1.124406e+01    2.841812e+00
  1.135519e+01    2.884293e+00
  1.146632e+01    2.780178e+00
  1.157745e+01    2.782472e+00
  1.168858e+01    2.725472e+00
  1.179971e+01    2.775935e+00
  1.191084e+01    2.740833e+00
  1.202197e+01    2.705932e+00
  1.213309e+01    2.691290e+00
  1.224422e+01    2.721988e+00
  1.235535e+01    2.683197e+00
  1.246648e+01    2.692474e+00
  1.257761e+01    2.719515e+00
  1.268874e+01    2.801070e+00
  1.279987e+01    2.968349e+00
  1.291100e+01    3.659595e+00
  1.302213e+01    6.765823e+00
  1.313326e+01    1.482466e+01
  1.324438e+01    1.071598e+01
  1.335551e+01    4.449091e+00
  1.346664e+01    3.117882e+00
  1.357777e+01    2.786391e+00
  1.368890e+01    2.565633e+00
  1.380003e+01    2.454718e+00
  1.391116e+01    2.397743e+00
  1.402229e+01    2.382823e+00
  1.413342e+01    2.302814e+00
  1.424455e+01    2.295349e+00
  1.435568e+01    2.274149e+00
  1.446680e+01    2.239397e+00
  1.457793e+01    2.227356e+00
  1.468906e+01    2.216712e+00
  1.480019e+01    2.184194e+00
  1.491132e+01    2.254849e+00
  1.502245e+01    2.507495e+00
  1.513358e+01    3.827341e+00
  1.524471e+01    5.774923e+00
  1.535584e+01    3.776960e+00
  1.546697e+01    2.417896e+00
  1.557809e+01    2.143655e+00
  1.568922e+01    2.012989e+00
  1.580035e+01    1.923140e+00
  1.591148e+01    1.878687e+00
  1.602261e+01    1.854790e+00
  1.613374e+01    1.847913e+00
  1.624487e+01    1.816409e+00
  1.635600e+01    1.777123e+00
  1.646713e+01    1.749427e+00
  1.657826e+01    1.750438e+00
  1.668938e+01    1.756649e+00
  1.680051e+01    1.703146e+00
  1.691164e+01    1.669689e+00
  1.702277e+01    1.659860e+00
  1.713390e+01    1.637931e+00
  1.724503e+01    1.603739e+00
  1.735616e+01    1.600757e+00
  1.746729e+01    1.581192e+00
  1.757842e+01    1.585880e+00
  1.768955e+01    1.551231e+00
  1.780067e+01    1.542292e+00
  1.791180e+01    1.555885e+00
  1.802293e+01    1.523759e+00
  1.813406e+01    1.491658e+00
  1.824519e+01    1.481172e+00
  1.835632e+01    1.462726e+00
  1.846745e+01    1.445722e+00
  1.857858e+01    1.391571e+00
  1.868971e+01    1.428343e+00
  1.880084e+01    1.411806e+00
  1.891196e+01    1.395401e+00
  1.902309e+01    1.394051e+00
  1.913422e+01    1.362533e+00
  1.924535e+01    1.375875e+00
  1.935648e+01    1.356815e+00
  1.946761e+01    1.323596e+00
  1.957874e+01    1.317318e+00
  1.968987e+01    1.317960e+00
  1.980100e+01    1.288020e+00
  1.991213e+01    1.276610e+00
  2.002325e+01    1.297110e+00
  2.013438e+01    1.274503e+00
  2.024551e+01    1.257841e+00
  2.035664e+01    1.250685e+00
  2.046777e+01    1.235918e+00
  2.057890e+01    1.242757e+00
  2.069003e+01    1.219520e+00
  2.080116e+01    1.240122e+00
  2.091229e+01    1.231339e+00
  2.102342e+01    1.222718e+00
  2.113455e+01    1.267814e+00
  2.124567e+01    1.225683e+00
  2.135680e+01    1.292341e+00
  2.146793e+01    1.373768e+00
  2.157906e+01    1.628800e+00
  2.169019e+01    2.485819e+00
  2.180132e+01    5.892462e+00
  2.191245e+01    8.739090e+00
  2.202358e+01    3.634574e+00
  2.213471e+01    1.872687e+00
  2.224584e+01    1.392321e+00
  2.235696e+01    1.245969e+00
  2.246809e+01    1.158311e+00
  2.257922e+01    1.124551e+00
  2.269035e+01    1.077238e+00
  2.280148e+01    1.045133e+00
  2.291261e+01    1.032580e+00
  2.302374e+01    1.039056e+00
  2.313487e+01    1.003345e+00
  2.324600e+01    1.005049e+00
  2.335713e+01    9.814689e-01
  2.346825e+01    9.810973e-01
  2.357938e+01    9.816810e-01
  2.369051e+01    9.514690e-01
  2.380164e+01    9.336530e-01
  2.391277e+01    9.030262e-01
  2.402390e+01    8.906353e-01
  2.413503e+01    8.725441e-01
  2.424616e+01    8.874753e-01
  2.435729e+01    8.931374e-01
  2.446842e+01    9.083354e-01
  2.457954e+01    8.867037e-01
  2.469067e+01    8.599575e-01
  2.480180e+01    9.013441e-01
  2.491293e+01    8.863532e-01
  2.502406e+01    8.896199e-01
  2.513519e+01    9.196705e-01
  2.524632e+01    9.409359e-01
  2.535745e+01    9.827129e-01
  2.546858e+01    1.041607e+00
  2.557971e+01    1.166421e+00
  2.569083e+01    1.499196e+00
  2.580196e+01    2.844869e+00
  2.591309e+01    6.359723e+00
  2.602422e+01    5.252045e+00
  2.613535e+01    2.144053e+00
  2.624648e+01    1.329155e+00
  2.635761e+01    1.081375e+00
  2.646874e+01    1.016986e+00
  2.657987e+01    9.924821e-01
  2.669100e+01    9.495225e-01
  2.680212e+01    9.870082e-01
  2.691325e+01    1.021302e+00
  2.702438e+01    1.166991e+00
  2.713551e+01    1.730372e+00
  2.724664e+01    2.052682e+00
  2.735777e+01    1.315433e+00
  2.746890e+01    1.016951e+00
  2.758003e+01    9.584360e-01
  2.769116e+01    9.098227e-01
  2.780229e+01    8.878983e-01
  2.791342e+01    8.798777e-01
  2.802454e+01    8.583310e-01
  2.813567e+01    8.387340e-01
  2.824680e+01    8.814001e-01
  2.835793e+01    8.497691e-01
  2.846906e+01    8.401017e-01
  2.858019e+01    8.209758e-01
  2.869132e+01    8.379604e-01
  2.880245e+01    8.294575e-01
  2.891358e+01    8.200005e-01
  2.902471e+01    8.193702e-01
  2.913583e+01    8.286789e-01
  2.924696e+01    8.269562e-01
  2.935809e+01    8.142834e-01
  2.946922e+01    7.959564e-01
  2.958035e+01    8.046966e-01
  2.969148e+01    7.780427e-01
  2.980261e+01    7.716967e-01
  2.991374e+01    7.866556e-01
  3.002487e+01    8.323941e-01
  3.013600e+01    7.976938e-01
  3.024712e+01    7.693542e-01
  3.035825e+01    7.823122e-01
  3.046938e+01    7.956420e-01
  3.058051e+01    7.738847e-01
  3.069164e+01    7.829206e-01
  3.080277e+01    7.860102e-01
  3.091390e+01    7.762220e-01
  3.102503e+01    7.750044e-01
  3.113616e+01    7.863283e-01
  3.124729e+01    7.986827e-01
  3.135841e+01    8.166215e-01
  3.146954e+01    8.189227e-01
  3.158067e+01    8.706228e-01
  3.169180e+01    9.947198e-01
  3.180293e+01    1.474288e+00
  3.191406e+01    2.076588e+00
  3.202519e+01    1.305223e+00
  3.213632e+01    9.372863e-01
  3.224745e+01    8.488540e-01
  3.235858e+01    8.154328e-01
  3.246970e+01    7.760246e-01
  3.254908e+01    7.797601e-01