Folder: myspot_2024_07/XRD/Reaction conditions (part 76)

File: 2024-07-27_003_Ru-CGO-ex_Reaction_dwell_000023_data_000185.dat
# == pyFAI calibration ==
# Distance Sample to Detector: 0.4 m
# PONI: 9.750e-02, 1.135e-01 m
# Rotations: -0.000175 0.000000 -0.000000 rad
#
# == Fit2d calibration ==
# Distance Sample-beamCenter: 400.000 mm
# Center: x=1514.000, y=1300.000 pix
# Tilt: 0.010 deg  TiltPlanRot: 0.010 deg
#
# Detector Detector	 Spline= None	 PixelSize= 7.500e-05, 7.500e-05 m
#    Detector has a mask: False
#    Detector has a dark current: False
#    detector has a flat field: False
#
# Wavelength: 6.888e-11 m
# Mask applied: user provided
# Dark current applied: False
# Flat field applied: False
# Polarization factor: 0.99
# Normalization factor: 1.0
# --> /home/myspot/data/2024_07_Rosario/Ru-CGO-ex/2024-07-27_003_Ru-CGO-ex_Reaction_dwell_000023_data_000185.dat
#       q_nm^-1             I
  2.003187e-02    0.000000e+00
  1.311609e-01    6.933002e-02
  2.422899e-01    4.552563e-02
  3.534189e-01    6.207243e-02
  4.645479e-01    4.353342e-02
  5.756770e-01    6.744883e-02
  6.868060e-01    4.696998e-02
  7.979350e-01    1.419729e-01
  9.090640e-01    6.172348e-01
  1.020193e+00    1.284107e+00
  1.131322e+00    1.665680e+00
  1.242451e+00    2.325615e+00
  1.353580e+00    2.723150e+00
  1.464709e+00    2.980498e+00
  1.575838e+00    3.245091e+00
  1.686967e+00    3.130072e+00
  1.798096e+00    3.078655e+00
  1.909225e+00    3.152093e+00
  2.020354e+00    2.887814e+00
  2.131483e+00    3.019040e+00
  2.242612e+00    3.034253e+00
  2.353741e+00    3.082255e+00
  2.464870e+00    3.081164e+00
  2.575999e+00    3.293590e+00
  2.687128e+00    3.097828e+00
  2.798257e+00    3.172780e+00
  2.909386e+00    3.232296e+00
  3.020515e+00    3.389113e+00
  3.131644e+00    3.250792e+00
  3.242773e+00    3.397685e+00
  3.353902e+00    3.282020e+00
  3.465031e+00    3.404603e+00
  3.576160e+00    3.405699e+00
  3.687289e+00    3.470775e+00
  3.798418e+00    3.414143e+00
  3.909547e+00    3.414322e+00
  4.020676e+00    3.413269e+00
  4.131806e+00    3.508074e+00
  4.242935e+00    3.537497e+00
  4.354064e+00    3.426564e+00
  4.465193e+00    3.483479e+00
  4.576322e+00    3.548549e+00
  4.687451e+00    3.599623e+00
  4.798580e+00    3.464877e+00
  4.909709e+00    3.621697e+00
  5.020838e+00    3.608882e+00
  5.131967e+00    3.589535e+00
  5.243096e+00    3.530810e+00
  5.354225e+00    3.581295e+00
  5.465354e+00    3.518045e+00
  5.576483e+00    3.524686e+00
  5.687612e+00    3.478284e+00
  5.798741e+00    3.507402e+00
  5.909870e+00    3.562955e+00
  6.020999e+00    3.524476e+00
  6.132128e+00    3.552977e+00
  6.243257e+00    3.535119e+00
  6.354386e+00    3.569373e+00
  6.465515e+00    3.472558e+00
  6.576644e+00    3.496789e+00
  6.687773e+00    3.448668e+00
  6.798902e+00    3.476201e+00
  6.910031e+00    3.486176e+00
  7.021160e+00    3.464833e+00
  7.132289e+00    3.503480e+00
  7.243418e+00    3.407748e+00
  7.354547e+00    3.443407e+00
  7.465676e+00    3.416252e+00
  7.576805e+00    3.409625e+00
  7.687934e+00    3.336715e+00
  7.799063e+00    3.386335e+00
  7.910192e+00    3.375863e+00
  8.021321e+00    3.394386e+00
  8.132450e+00    3.371850e+00
  8.243579e+00    3.437912e+00
  8.354708e+00    3.314276e+00
  8.465837e+00    3.394045e+00
  8.576966e+00    3.230835e+00
  8.688095e+00    3.346462e+00
  8.799224e+00    3.256501e+00
  8.910353e+00    3.257165e+00
  9.021482e+00    3.292456e+00
  9.132611e+00    3.263085e+00
  9.243740e+00    3.252959e+00
  9.354869e+00    3.169457e+00
  9.465998e+00    3.151077e+00
  9.577127e+00    3.161342e+00
  9.688256e+00    3.098635e+00
  9.799385e+00    3.169184e+00
  9.910514e+00    3.116221e+00
  1.002164e+01    3.069171e+00
  1.013277e+01    3.076743e+00
  1.024390e+01    3.068994e+00
  1.035503e+01    3.067832e+00
  1.046616e+01    2.934609e+00
  1.057729e+01    2.975393e+00
  1.068842e+01    2.985956e+00
  1.079955e+01    2.889616e+00
  1.091068e+01    2.883048e+00
  1.102180e+01    2.843108e+00
  1.113293e+01    2.848272e+00
  1.124406e+01    2.794459e+00
  1.135519e+01    2.768387e+00
  1.146632e+01    2.785436e+00
  1.157745e+01    2.761110e+00
  1.168858e+01    2.727037e+00
  1.179971e+01    2.745444e+00
  1.191084e+01    2.675817e+00
  1.202197e+01    2.682653e+00
  1.213309e+01    2.718157e+00
  1.224422e+01    2.622560e+00
  1.235535e+01    2.650835e+00
  1.246648e+01    2.640121e+00
  1.257761e+01    2.702327e+00
  1.268874e+01    2.836178e+00
  1.279987e+01    2.977695e+00
  1.291100e+01    3.576993e+00
  1.302213e+01    6.646750e+00
  1.313326e+01    1.473239e+01
  1.324438e+01    1.050628e+01
  1.335551e+01    4.363401e+00
  1.346664e+01    3.089801e+00
  1.357777e+01    2.713838e+00
  1.368890e+01    2.522458e+00
  1.380003e+01    2.417673e+00
  1.391116e+01    2.396638e+00
  1.402229e+01    2.304927e+00
  1.413342e+01    2.257955e+00
  1.424455e+01    2.217984e+00
  1.435568e+01    2.239984e+00
  1.446680e+01    2.176376e+00
  1.457793e+01    2.170477e+00
  1.468906e+01    2.133917e+00
  1.480019e+01    2.155573e+00
  1.491132e+01    2.207376e+00
  1.502245e+01    2.449819e+00
  1.513358e+01    3.694430e+00
  1.524471e+01    5.649522e+00
  1.535584e+01    3.699499e+00
  1.546697e+01    2.369098e+00
  1.557809e+01    2.078861e+00
  1.568922e+01    2.000037e+00
  1.580035e+01    1.921672e+00
  1.591148e+01    1.866060e+00
  1.602261e+01    1.811708e+00
  1.613374e+01    1.803975e+00
  1.624487e+01    1.745835e+00
  1.635600e+01    1.768326e+00
  1.646713e+01    1.759613e+00
  1.657826e+01    1.716749e+00
  1.668938e+01    1.679038e+00
  1.680051e+01    1.682905e+00
  1.691164e+01    1.679867e+00
  1.702277e+01    1.659397e+00
  1.713390e+01    1.636744e+00
  1.724503e+01    1.575694e+00
  1.735616e+01    1.547685e+00
  1.746729e+01    1.575211e+00
  1.757842e+01    1.529517e+00
  1.768955e+01    1.540780e+00
  1.780067e+01    1.540205e+00
  1.791180e+01    1.502295e+00
  1.802293e+01    1.466029e+00
  1.813406e+01    1.457461e+00
  1.824519e+01    1.437000e+00
  1.835632e+01    1.423809e+00
  1.846745e+01    1.420640e+00
  1.857858e+01    1.399903e+00
  1.868971e+01    1.400303e+00
  1.880084e+01    1.387892e+00
  1.891196e+01    1.362723e+00
  1.902309e+01    1.328071e+00
  1.913422e+01    1.331960e+00
  1.924535e+01    1.349393e+00
  1.935648e+01    1.320247e+00
  1.946761e+01    1.322108e+00
  1.957874e+01    1.285689e+00
  1.968987e+01    1.291872e+00
  1.980100e+01    1.279160e+00
  1.991213e+01    1.270168e+00
  2.002325e+01    1.244413e+00
  2.013438e+01    1.241187e+00
  2.024551e+01    1.232257e+00
  2.035664e+01    1.225878e+00
  2.046777e+01    1.209858e+00
  2.057890e+01    1.203582e+00
  2.069003e+01    1.182557e+00
  2.080116e+01    1.190055e+00
  2.091229e+01    1.188298e+00
  2.102342e+01    1.213022e+00
  2.113455e+01    1.205758e+00
  2.124567e+01    1.222290e+00
  2.135680e+01    1.279983e+00
  2.146793e+01    1.350907e+00
  2.157906e+01    1.582655e+00
  2.169019e+01    2.458936e+00
  2.180132e+01    5.672064e+00
  2.191245e+01    8.669025e+00
  2.202358e+01    3.603582e+00
  2.213471e+01    1.842341e+00
  2.224584e+01    1.368025e+00
  2.235696e+01    1.221334e+00
  2.246809e+01    1.161890e+00
  2.257922e+01    1.100491e+00
  2.269035e+01    1.067615e+00
  2.280148e+01    1.057533e+00
  2.291261e+01    9.918990e-01
  2.302374e+01    1.010705e+00
  2.313487e+01    1.002086e+00
  2.324600e+01    9.860618e-01
  2.335713e+01    9.441544e-01
  2.346825e+01    9.557151e-01
  2.357938e+01    9.491373e-01
  2.369051e+01    9.408460e-01
  2.380164e+01    9.189318e-01
  2.391277e+01    8.742136e-01
  2.402390e+01    8.858905e-01
  2.413503e+01    8.737954e-01
  2.424616e+01    8.747280e-01
  2.435729e+01    8.979387e-01
  2.446842e+01    8.697932e-01
  2.457954e+01    8.858323e-01
  2.469067e+01    8.702648e-01
  2.480180e+01    8.942830e-01
  2.491293e+01    8.826587e-01
  2.502406e+01    8.843800e-01
  2.513519e+01    8.830500e-01
  2.524632e+01    9.247414e-01
  2.535745e+01    9.493806e-01
  2.546858e+01    1.028061e+00
  2.557971e+01    1.139844e+00
  2.569083e+01    1.464574e+00
  2.580196e+01    2.750756e+00
  2.591309e+01    6.267388e+00
  2.602422e+01    5.237877e+00
  2.613535e+01    2.117618e+00
  2.624648e+01    1.340122e+00
  2.635761e+01    1.093511e+00
  2.646874e+01    1.012527e+00
  2.657987e+01    9.505256e-01
  2.669100e+01    9.340728e-01
  2.680212e+01    9.637542e-01
  2.691325e+01    1.002265e+00
  2.702438e+01    1.133598e+00
  2.713551e+01    1.701765e+00
  2.724664e+01    2.053798e+00
  2.735777e+01    1.270939e+00
  2.746890e+01    1.010246e+00
  2.758003e+01    9.249890e-01
  2.769116e+01    8.881389e-01
  2.780229e+01    9.097333e-01
  2.791342e+01    8.659864e-01
  2.802454e+01    8.475186e-01
  2.813567e+01    8.580269e-01
  2.824680e+01    8.574079e-01
  2.835793e+01    8.387415e-01
  2.846906e+01    8.332708e-01
  2.858019e+01    8.398245e-01
  2.869132e+01    8.287452e-01
  2.880245e+01    8.166606e-01
  2.891358e+01    8.117809e-01
  2.902471e+01    8.113780e-01
  2.913583e+01    8.339524e-01
  2.924696e+01    7.919974e-01
  2.935809e+01    7.820698e-01
  2.946922e+01    8.104594e-01
  2.958035e+01    7.853932e-01
  2.969148e+01    8.176727e-01
  2.980261e+01    7.639683e-01
  2.991374e+01    7.742318e-01
  3.002487e+01    7.938271e-01
  3.013600e+01    7.782407e-01
  3.024712e+01    7.902153e-01
  3.035825e+01    7.630265e-01
  3.046938e+01    7.868133e-01
  3.058051e+01    7.739688e-01
  3.069164e+01    7.484783e-01
  3.080277e+01    7.748501e-01
  3.091390e+01    7.816397e-01
  3.102503e+01    7.695845e-01
  3.113616e+01    7.726513e-01
  3.124729e+01    7.817923e-01
  3.135841e+01    7.887079e-01
  3.146954e+01    7.965360e-01
  3.158067e+01    8.504173e-01
  3.169180e+01    1.005790e+00
  3.180293e+01    1.442602e+00
  3.191406e+01    2.042969e+00
  3.202519e+01    1.325752e+00
  3.213632e+01    9.043253e-01
  3.224745e+01    7.765748e-01
  3.235858e+01    7.754479e-01
  3.246970e+01    7.701831e-01
  3.254908e+01    7.618830e-01

File: 2024-07-27_003_Ru-CGO-ex_Reaction_dwell_000023_data_000186.dat
# == pyFAI calibration ==
# Distance Sample to Detector: 0.4 m
# PONI: 9.750e-02, 1.135e-01 m
# Rotations: -0.000175 0.000000 -0.000000 rad
#
# == Fit2d calibration ==
# Distance Sample-beamCenter: 400.000 mm
# Center: x=1514.000, y=1300.000 pix
# Tilt: 0.010 deg  TiltPlanRot: 0.010 deg
#
# Detector Detector	 Spline= None	 PixelSize= 7.500e-05, 7.500e-05 m
#    Detector has a mask: False
#    Detector has a dark current: False
#    detector has a flat field: False
#
# Wavelength: 6.888e-11 m
# Mask applied: user provided
# Dark current applied: False
# Flat field applied: False
# Polarization factor: 0.99
# Normalization factor: 1.0
# --> /home/myspot/data/2024_07_Rosario/Ru-CGO-ex/2024-07-27_003_Ru-CGO-ex_Reaction_dwell_000023_data_000186.dat
#       q_nm^-1             I
  2.003187e-02    0.000000e+00
  1.311609e-01    2.738347e-02
  2.422899e-01    2.998466e-02
  3.534189e-01    1.009944e-01
  4.645479e-01    4.014540e-02
  5.756770e-01    3.824549e-02
  6.868060e-01    5.041734e-02
  7.979350e-01    1.776894e-01
  9.090640e-01    6.636953e-01
  1.020193e+00    1.298252e+00
  1.131322e+00    1.690000e+00
  1.242451e+00    2.361720e+00
  1.353580e+00    2.732657e+00
  1.464709e+00    3.011824e+00
  1.575838e+00    3.195322e+00
  1.686967e+00    3.000327e+00
  1.798096e+00    3.114829e+00
  1.909225e+00    2.986589e+00
  2.020354e+00    2.928187e+00
  2.131483e+00    3.010636e+00
  2.242612e+00    3.033565e+00
  2.353741e+00    3.080646e+00
  2.464870e+00    3.227976e+00
  2.575999e+00    3.157606e+00
  2.687128e+00    3.238043e+00
  2.798257e+00    3.189613e+00
  2.909386e+00    3.263028e+00
  3.020515e+00    3.165858e+00
  3.131644e+00    3.254959e+00
  3.242773e+00    3.287406e+00
  3.353902e+00    3.373081e+00
  3.465031e+00    3.300270e+00
  3.576160e+00    3.422672e+00
  3.687289e+00    3.406126e+00
  3.798418e+00    3.481524e+00
  3.909547e+00    3.509256e+00
  4.020676e+00    3.498505e+00
  4.131806e+00    3.526789e+00
  4.242935e+00    3.513486e+00
  4.354064e+00    3.514917e+00
  4.465193e+00    3.523225e+00
  4.576322e+00    3.495683e+00
  4.687451e+00    3.560211e+00
  4.798580e+00    3.502354e+00
  4.909709e+00    3.473684e+00
  5.020838e+00    3.559690e+00
  5.131967e+00    3.591192e+00
  5.243096e+00    3.561821e+00
  5.354225e+00    3.559690e+00
  5.465354e+00    3.499748e+00
  5.576483e+00    3.600820e+00
  5.687612e+00    3.565236e+00
  5.798741e+00    3.628230e+00
  5.909870e+00    3.397015e+00
  6.020999e+00    3.456121e+00
  6.132128e+00    3.578303e+00
  6.243257e+00    3.553174e+00
  6.354386e+00    3.560591e+00
  6.465515e+00    3.568282e+00
  6.576644e+00    3.500013e+00
  6.687773e+00    3.503724e+00
  6.798902e+00    3.505855e+00
  6.910031e+00    3.488508e+00
  7.021160e+00    3.534246e+00
  7.132289e+00    3.415972e+00
  7.243418e+00    3.476552e+00
  7.354547e+00    3.438380e+00
  7.465676e+00    3.424436e+00
  7.576805e+00    3.496436e+00
  7.687934e+00    3.485276e+00
  7.799063e+00    3.344837e+00
  7.910192e+00    3.410610e+00
  8.021321e+00    3.309453e+00
  8.132450e+00    3.430249e+00
  8.243579e+00    3.365950e+00
  8.354708e+00    3.324486e+00
  8.465837e+00    3.352848e+00
  8.576966e+00    3.255260e+00
  8.688095e+00    3.216156e+00
  8.799224e+00    3.301455e+00
  8.910353e+00    3.208142e+00
  9.021482e+00    3.192647e+00
  9.132611e+00    3.284609e+00
  9.243740e+00    3.163020e+00
  9.354869e+00    3.177213e+00
  9.465998e+00    3.150670e+00
  9.577127e+00    3.127689e+00
  9.688256e+00    3.099550e+00
  9.799385e+00    3.128611e+00
  9.910514e+00    3.125940e+00
  1.002164e+01    3.101062e+00
  1.013277e+01    3.009380e+00
  1.024390e+01    3.080126e+00
  1.035503e+01    3.029604e+00
  1.046616e+01    2.975300e+00
  1.057729e+01    2.955399e+00
  1.068842e+01    2.857066e+00
  1.079955e+01    2.869458e+00
  1.091068e+01    2.922439e+00
  1.102180e+01    2.848356e+00
  1.113293e+01    2.810186e+00
  1.124406e+01    2.809031e+00
  1.135519e+01    2.825201e+00
  1.146632e+01    2.768995e+00
  1.157745e+01    2.725754e+00
  1.168858e+01    2.767756e+00
  1.179971e+01    2.722470e+00
  1.191084e+01    2.663948e+00
  1.202197e+01    2.656320e+00
  1.213309e+01    2.626865e+00
  1.224422e+01    2.648237e+00
  1.235535e+01    2.679060e+00
  1.246648e+01    2.624883e+00
  1.257761e+01    2.647635e+00
  1.268874e+01    2.747652e+00
  1.279987e+01    2.936044e+00
  1.291100e+01    3.620167e+00
  1.302213e+01    6.593863e+00
  1.313326e+01    1.466237e+01
  1.324438e+01    1.050552e+01
  1.335551e+01    4.428429e+00
  1.346664e+01    3.036008e+00
  1.357777e+01    2.664555e+00
  1.368890e+01    2.553817e+00
  1.380003e+01    2.410009e+00
  1.391116e+01    2.375031e+00
  1.402229e+01    2.334248e+00
  1.413342e+01    2.274075e+00
  1.424455e+01    2.239225e+00
  1.435568e+01    2.245425e+00
  1.446680e+01    2.187330e+00
  1.457793e+01    2.191568e+00
  1.468906e+01    2.173244e+00
  1.480019e+01    2.149960e+00
  1.491132e+01    2.198279e+00
  1.502245e+01    2.490579e+00
  1.513358e+01    3.759609e+00
  1.524471e+01    5.635098e+00
  1.535584e+01    3.700358e+00
  1.546697e+01    2.404886e+00
  1.557809e+01    2.069210e+00
  1.568922e+01    1.946684e+00
  1.580035e+01    1.928809e+00
  1.591148e+01    1.859199e+00
  1.602261e+01    1.840705e+00
  1.613374e+01    1.827518e+00
  1.624487e+01    1.793925e+00
  1.635600e+01    1.758041e+00
  1.646713e+01    1.730235e+00
  1.657826e+01    1.700264e+00
  1.668938e+01    1.676888e+00
  1.680051e+01    1.648862e+00
  1.691164e+01    1.675158e+00
  1.702277e+01    1.627354e+00
  1.713390e+01    1.611588e+00
  1.724503e+01    1.593806e+00
  1.735616e+01    1.608570e+00
  1.746729e+01    1.581697e+00
  1.757842e+01    1.535804e+00
  1.768955e+01    1.495449e+00
  1.780067e+01    1.509792e+00
  1.791180e+01    1.524609e+00
  1.802293e+01    1.476646e+00
  1.813406e+01    1.424830e+00
  1.824519e+01    1.434786e+00
  1.835632e+01    1.440023e+00
  1.846745e+01    1.442816e+00
  1.857858e+01    1.440194e+00
  1.868971e+01    1.436643e+00
  1.880084e+01    1.378535e+00
  1.891196e+01    1.366072e+00
  1.902309e+01    1.359697e+00
  1.913422e+01    1.358271e+00
  1.924535e+01    1.341540e+00
  1.935648e+01    1.305754e+00
  1.946761e+01    1.335832e+00
  1.957874e+01    1.295957e+00
  1.968987e+01    1.303720e+00
  1.980100e+01    1.312681e+00
  1.991213e+01    1.282480e+00
  2.002325e+01    1.276601e+00
  2.013438e+01    1.248454e+00
  2.024551e+01    1.259205e+00
  2.035664e+01    1.243845e+00
  2.046777e+01    1.207416e+00
  2.057890e+01    1.208332e+00
  2.069003e+01    1.211687e+00
  2.080116e+01    1.195036e+00
  2.091229e+01    1.205431e+00
  2.102342e+01    1.209919e+00
  2.113455e+01    1.216272e+00
  2.124567e+01    1.244549e+00
  2.135680e+01    1.273909e+00
  2.146793e+01    1.340835e+00
  2.157906e+01    1.578991e+00
  2.169019e+01    2.465615e+00
  2.180132e+01    5.758370e+00
  2.191245e+01    8.743974e+00
  2.202358e+01    3.532009e+00
  2.213471e+01    1.877616e+00
  2.224584e+01    1.379873e+00
  2.235696e+01    1.213573e+00
  2.246809e+01    1.159418e+00
  2.257922e+01    1.064555e+00
  2.269035e+01    1.052351e+00
  2.280148e+01    1.038483e+00
  2.291261e+01    1.033701e+00
  2.302374e+01    1.002089e+00
  2.313487e+01    9.927505e-01
  2.324600e+01    9.743083e-01
  2.335713e+01    9.564754e-01
  2.346825e+01    9.558744e-01
  2.357938e+01    9.353493e-01
  2.369051e+01    9.240518e-01
  2.380164e+01    9.059607e-01
  2.391277e+01    9.146384e-01
  2.402390e+01    8.798653e-01
  2.413503e+01    8.967191e-01
  2.424616e+01    8.612996e-01
  2.435729e+01    8.860850e-01
  2.446842e+01    8.832635e-01
  2.457954e+01    8.685973e-01
  2.469067e+01    8.748010e-01
  2.480180e+01    8.636912e-01
  2.491293e+01    8.869836e-01
  2.502406e+01    8.875854e-01
  2.513519e+01    8.752472e-01
  2.524632e+01    9.274622e-01
  2.535745e+01    9.561891e-01
  2.546858e+01    1.031770e+00
  2.557971e+01    1.141271e+00
  2.569083e+01    1.473600e+00
  2.580196e+01    2.697187e+00
  2.591309e+01    6.200406e+00
  2.602422e+01    5.213462e+00
  2.613535e+01    2.081214e+00
  2.624648e+01    1.312955e+00
  2.635761e+01    1.103582e+00
  2.646874e+01    1.011667e+00
  2.657987e+01    9.791875e-01
  2.669100e+01    9.461864e-01
  2.680212e+01    9.607025e-01
  2.691325e+01    9.742422e-01
  2.702438e+01    1.120013e+00
  2.713551e+01    1.682297e+00
  2.724664e+01    2.058975e+00
  2.735777e+01    1.277324e+00
  2.746890e+01    1.001981e+00
  2.758003e+01    9.186059e-01
  2.769116e+01    9.093039e-01
  2.780229e+01    8.694155e-01
  2.791342e+01    8.516814e-01
  2.802454e+01    8.523498e-01
  2.813567e+01    8.482013e-01
  2.824680e+01    8.464271e-01
  2.835793e+01    8.319181e-01
  2.846906e+01    8.376419e-01
  2.858019e+01    8.186231e-01
  2.869132e+01    8.109290e-01
  2.880245e+01    8.015308e-01
  2.891358e+01    7.889912e-01
  2.902471e+01    8.314940e-01
  2.913583e+01    7.861996e-01
  2.924696e+01    8.146847e-01
  2.935809e+01    7.892382e-01
  2.946922e+01    7.776780e-01
  2.958035e+01    7.936153e-01
  2.969148e+01    7.804855e-01
  2.980261e+01    8.074055e-01
  2.991374e+01    7.952604e-01
  3.002487e+01    8.013048e-01
  3.013600e+01    7.868358e-01
  3.024712e+01    7.748790e-01
  3.035825e+01    7.788937e-01
  3.046938e+01    7.573871e-01
  3.058051e+01    7.764429e-01
  3.069164e+01    7.549965e-01
  3.080277e+01    7.636688e-01
  3.091390e+01    7.975559e-01
  3.102503e+01    7.719398e-01
  3.113616e+01    7.753685e-01
  3.124729e+01    7.716123e-01
  3.135841e+01    7.920658e-01
  3.146954e+01    8.193259e-01
  3.158067e+01    8.316060e-01
  3.169180e+01    9.722158e-01
  3.180293e+01    1.410729e+00
  3.191406e+01    2.049732e+00
  3.202519e+01    1.289981e+00
  3.213632e+01    9.282068e-01
  3.224745e+01    8.272412e-01
  3.235858e+01    7.989663e-01
  3.246970e+01    7.726166e-01
  3.254908e+01    7.812544e-01