Folder: myspot_2024_07/XRD/Reaction conditions (part 56)

File: 2024-07-27_003_Ru-CGO-ex_Reaction_dwell_000023_data_000140.dat
# == pyFAI calibration ==
# Distance Sample to Detector: 0.4 m
# PONI: 9.750e-02, 1.135e-01 m
# Rotations: -0.000175 0.000000 -0.000000 rad
#
# == Fit2d calibration ==
# Distance Sample-beamCenter: 400.000 mm
# Center: x=1514.000, y=1300.000 pix
# Tilt: 0.010 deg  TiltPlanRot: 0.010 deg
#
# Detector Detector	 Spline= None	 PixelSize= 7.500e-05, 7.500e-05 m
#    Detector has a mask: False
#    Detector has a dark current: False
#    detector has a flat field: False
#
# Wavelength: 6.888e-11 m
# Mask applied: user provided
# Dark current applied: False
# Flat field applied: False
# Polarization factor: 0.99
# Normalization factor: 1.0
# --> /home/myspot/data/2024_07_Rosario/Ru-CGO-ex/2024-07-27_003_Ru-CGO-ex_Reaction_dwell_000023_data_000140.dat
#       q_nm^-1             I
  2.003187e-02    7.711996e-02
  1.311609e-01    3.754014e-02
  2.422899e-01    2.116267e-02
  3.534189e-01    6.152721e-02
  4.645479e-01    3.510791e-02
  5.756770e-01    8.948893e-03
  6.868060e-01    4.008193e-02
  7.979350e-01    1.536517e-01
  9.090640e-01    6.116643e-01
  1.020193e+00    1.354269e+00
  1.131322e+00    1.499082e+00
  1.242451e+00    2.286395e+00
  1.353580e+00    2.785846e+00
  1.464709e+00    3.032425e+00
  1.575838e+00    3.110818e+00
  1.686967e+00    3.086658e+00
  1.798096e+00    3.179957e+00
  1.909225e+00    2.909076e+00
  2.020354e+00    3.082224e+00
  2.131483e+00    3.028942e+00
  2.242612e+00    3.088932e+00
  2.353741e+00    3.223867e+00
  2.464870e+00    3.209155e+00
  2.575999e+00    3.063602e+00
  2.687128e+00    3.184106e+00
  2.798257e+00    3.272816e+00
  2.909386e+00    3.407260e+00
  3.020515e+00    3.351089e+00
  3.131644e+00    3.303252e+00
  3.242773e+00    3.438426e+00
  3.353902e+00    3.499552e+00
  3.465031e+00    3.471994e+00
  3.576160e+00    3.461365e+00
  3.687289e+00    3.413738e+00
  3.798418e+00    3.491139e+00
  3.909547e+00    3.463784e+00
  4.020676e+00    3.550824e+00
  4.131806e+00    3.482281e+00
  4.242935e+00    3.626636e+00
  4.354064e+00    3.596668e+00
  4.465193e+00    3.612330e+00
  4.576322e+00    3.598372e+00
  4.687451e+00    3.663751e+00
  4.798580e+00    3.649119e+00
  4.909709e+00    3.599864e+00
  5.020838e+00    3.803640e+00
  5.131967e+00    3.687761e+00
  5.243096e+00    3.698396e+00
  5.354225e+00    3.737038e+00
  5.465354e+00    3.699188e+00
  5.576483e+00    3.652058e+00
  5.687612e+00    3.549321e+00
  5.798741e+00    3.503782e+00
  5.909870e+00    3.526996e+00
  6.020999e+00    3.577931e+00
  6.132128e+00    3.644368e+00
  6.243257e+00    3.504622e+00
  6.354386e+00    3.541580e+00
  6.465515e+00    3.533896e+00
  6.576644e+00    3.540516e+00
  6.687773e+00    3.477315e+00
  6.798902e+00    3.530806e+00
  6.910031e+00    3.554329e+00
  7.021160e+00    3.580152e+00
  7.132289e+00    3.547177e+00
  7.243418e+00    3.490650e+00
  7.354547e+00    3.469597e+00
  7.465676e+00    3.529850e+00
  7.576805e+00    3.496322e+00
  7.687934e+00    3.501483e+00
  7.799063e+00    3.469916e+00
  7.910192e+00    3.424138e+00
  8.021321e+00    3.441022e+00
  8.132450e+00    3.498823e+00
  8.243579e+00    3.466454e+00
  8.354708e+00    3.363286e+00
  8.465837e+00    3.423417e+00
  8.576966e+00    3.387728e+00
  8.688095e+00    3.327241e+00
  8.799224e+00    3.339122e+00
  8.910353e+00    3.303762e+00
  9.021482e+00    3.337903e+00
  9.132611e+00    3.271722e+00
  9.243740e+00    3.237744e+00
  9.354869e+00    3.241739e+00
  9.465998e+00    3.195072e+00
  9.577127e+00    3.211689e+00
  9.688256e+00    3.223037e+00
  9.799385e+00    3.162462e+00
  9.910514e+00    3.090317e+00
  1.002164e+01    3.063407e+00
  1.013277e+01    3.081600e+00
  1.024390e+01    3.027808e+00
  1.035503e+01    3.100235e+00
  1.046616e+01    2.981089e+00
  1.057729e+01    2.975737e+00
  1.068842e+01    3.014999e+00
  1.079955e+01    2.948818e+00
  1.091068e+01    2.922742e+00
  1.102180e+01    2.850342e+00
  1.113293e+01    2.888920e+00
  1.124406e+01    2.842257e+00
  1.135519e+01    2.816181e+00
  1.146632e+01    2.818181e+00
  1.157745e+01    2.820340e+00
  1.168858e+01    2.755102e+00
  1.179971e+01    2.788093e+00
  1.191084e+01    2.744119e+00
  1.202197e+01    2.671755e+00
  1.213309e+01    2.675556e+00
  1.224422e+01    2.660778e+00
  1.235535e+01    2.643231e+00
  1.246648e+01    2.712993e+00
  1.257761e+01    2.712234e+00
  1.268874e+01    2.765646e+00
  1.279987e+01    2.993586e+00
  1.291100e+01    3.638457e+00
  1.302213e+01    6.664159e+00
  1.313326e+01    1.485330e+01
  1.324438e+01    1.072170e+01
  1.335551e+01    4.466203e+00
  1.346664e+01    3.120128e+00
  1.357777e+01    2.797029e+00
  1.368890e+01    2.625280e+00
  1.380003e+01    2.511106e+00
  1.391116e+01    2.394481e+00
  1.402229e+01    2.331511e+00
  1.413342e+01    2.324609e+00
  1.424455e+01    2.311530e+00
  1.435568e+01    2.247016e+00
  1.446680e+01    2.246646e+00
  1.457793e+01    2.237595e+00
  1.468906e+01    2.195118e+00
  1.480019e+01    2.233535e+00
  1.491132e+01    2.242586e+00
  1.502245e+01    2.515554e+00
  1.513358e+01    3.810327e+00
  1.524471e+01    5.698550e+00
  1.535584e+01    3.759890e+00
  1.546697e+01    2.446477e+00
  1.557809e+01    2.145622e+00
  1.568922e+01    2.000352e+00
  1.580035e+01    1.934575e+00
  1.591148e+01    1.854551e+00
  1.602261e+01    1.871039e+00
  1.613374e+01    1.848632e+00
  1.624487e+01    1.834714e+00
  1.635600e+01    1.779947e+00
  1.646713e+01    1.764297e+00
  1.657826e+01    1.723454e+00
  1.668938e+01    1.710627e+00
  1.680051e+01    1.696829e+00
  1.691164e+01    1.685049e+00
  1.702277e+01    1.633425e+00
  1.713390e+01    1.671653e+00
  1.724503e+01    1.619043e+00
  1.735616e+01    1.610092e+00
  1.746729e+01    1.636415e+00
  1.757842e+01    1.594817e+00
  1.768955e+01    1.550174e+00
  1.780067e+01    1.558371e+00
  1.791180e+01    1.515307e+00
  1.802293e+01    1.485270e+00
  1.813406e+01    1.470237e+00
  1.824519e+01    1.466471e+00
  1.835632e+01    1.453396e+00
  1.846745e+01    1.478297e+00
  1.857858e+01    1.431058e+00
  1.868971e+01    1.452175e+00
  1.880084e+01    1.415876e+00
  1.891196e+01    1.392600e+00
  1.902309e+01    1.403557e+00
  1.913422e+01    1.349422e+00
  1.924535e+01    1.385266e+00
  1.935648e+01    1.341972e+00
  1.946761e+01    1.342659e+00
  1.957874e+01    1.325754e+00
  1.968987e+01    1.313715e+00
  1.980100e+01    1.297914e+00
  1.991213e+01    1.285253e+00
  2.002325e+01    1.275480e+00
  2.013438e+01    1.276709e+00
  2.024551e+01    1.284802e+00
  2.035664e+01    1.254938e+00
  2.046777e+01    1.259026e+00
  2.057890e+01    1.239283e+00
  2.069003e+01    1.225896e+00
  2.080116e+01    1.245358e+00
  2.091229e+01    1.200387e+00
  2.102342e+01    1.210047e+00
  2.113455e+01    1.223269e+00
  2.124567e+01    1.235785e+00
  2.135680e+01    1.290527e+00
  2.146793e+01    1.345985e+00
  2.157906e+01    1.620808e+00
  2.169019e+01    2.506998e+00
  2.180132e+01    5.855944e+00
  2.191245e+01    8.738440e+00
  2.202358e+01    3.620168e+00
  2.213471e+01    1.887997e+00
  2.224584e+01    1.404846e+00
  2.235696e+01    1.233901e+00
  2.246809e+01    1.177273e+00
  2.257922e+01    1.112286e+00
  2.269035e+01    1.097456e+00
  2.280148e+01    1.053333e+00
  2.291261e+01    1.052058e+00
  2.302374e+01    1.009797e+00
  2.313487e+01    9.797771e-01
  2.324600e+01    9.567046e-01
  2.335713e+01    1.001758e+00
  2.346825e+01    9.599195e-01
  2.357938e+01    9.607524e-01
  2.369051e+01    9.412494e-01
  2.380164e+01    9.253048e-01
  2.391277e+01    9.039658e-01
  2.402390e+01    9.105028e-01
  2.413503e+01    8.820462e-01
  2.424616e+01    8.778727e-01
  2.435729e+01    8.750842e-01
  2.446842e+01    8.839726e-01
  2.457954e+01    8.822510e-01
  2.469067e+01    8.876768e-01
  2.480180e+01    8.871533e-01
  2.491293e+01    8.953460e-01
  2.502406e+01    9.000980e-01
  2.513519e+01    9.278146e-01
  2.524632e+01    9.614021e-01
  2.535745e+01    9.765705e-01
  2.546858e+01    1.027414e+00
  2.557971e+01    1.154651e+00
  2.569083e+01    1.500698e+00
  2.580196e+01    2.796640e+00
  2.591309e+01    6.331697e+00
  2.602422e+01    5.313867e+00
  2.613535e+01    2.143003e+00
  2.624648e+01    1.334940e+00
  2.635761e+01    1.097552e+00
  2.646874e+01    1.013087e+00
  2.657987e+01    9.976267e-01
  2.669100e+01    9.647822e-01
  2.680212e+01    9.865085e-01
  2.691325e+01    1.014052e+00
  2.702438e+01    1.164620e+00
  2.713551e+01    1.735549e+00
  2.724664e+01    2.084784e+00
  2.735777e+01    1.296675e+00
  2.746890e+01    1.003370e+00
  2.758003e+01    9.428017e-01
  2.769116e+01    9.111756e-01
  2.780229e+01    8.844237e-01
  2.791342e+01    8.590845e-01
  2.802454e+01    8.561252e-01
  2.813567e+01    8.621814e-01
  2.824680e+01    8.785833e-01
  2.835793e+01    8.609260e-01
  2.846906e+01    8.535352e-01
  2.858019e+01    8.482625e-01
  2.869132e+01    8.317183e-01
  2.880245e+01    8.243834e-01
  2.891358e+01    8.256890e-01
  2.902471e+01    8.160485e-01
  2.913583e+01    8.083349e-01
  2.924696e+01    8.140152e-01
  2.935809e+01    8.059844e-01
  2.946922e+01    7.965844e-01
  2.958035e+01    8.006454e-01
  2.969148e+01    8.021024e-01
  2.980261e+01    7.720602e-01
  2.991374e+01    8.022573e-01
  3.002487e+01    7.996660e-01
  3.013600e+01    7.787375e-01
  3.024712e+01    7.816725e-01
  3.035825e+01    7.961116e-01
  3.046938e+01    7.864897e-01
  3.058051e+01    8.022537e-01
  3.069164e+01    7.609919e-01
  3.080277e+01    7.880647e-01
  3.091390e+01    7.789301e-01
  3.102503e+01    7.824101e-01
  3.113616e+01    7.765111e-01
  3.124729e+01    7.807447e-01
  3.135841e+01    8.265899e-01
  3.146954e+01    7.969495e-01
  3.158067e+01    8.693416e-01
  3.169180e+01    9.901361e-01
  3.180293e+01    1.470329e+00
  3.191406e+01    2.082811e+00
  3.202519e+01    1.310714e+00
  3.213632e+01    9.386725e-01
  3.224745e+01    8.304750e-01
  3.235858e+01    7.835475e-01
  3.246970e+01    7.802005e-01
  3.254908e+01    7.610638e-01

File: 2024-07-27_003_Ru-CGO-ex_Reaction_dwell_000023_data_000141.dat
# == pyFAI calibration ==
# Distance Sample to Detector: 0.4 m
# PONI: 9.750e-02, 1.135e-01 m
# Rotations: -0.000175 0.000000 -0.000000 rad
#
# == Fit2d calibration ==
# Distance Sample-beamCenter: 400.000 mm
# Center: x=1514.000, y=1300.000 pix
# Tilt: 0.010 deg  TiltPlanRot: 0.010 deg
#
# Detector Detector	 Spline= None	 PixelSize= 7.500e-05, 7.500e-05 m
#    Detector has a mask: False
#    Detector has a dark current: False
#    detector has a flat field: False
#
# Wavelength: 6.888e-11 m
# Mask applied: user provided
# Dark current applied: False
# Flat field applied: False
# Polarization factor: 0.99
# Normalization factor: 1.0
# --> /home/myspot/data/2024_07_Rosario/Ru-CGO-ex/2024-07-27_003_Ru-CGO-ex_Reaction_dwell_000023_data_000141.dat
#       q_nm^-1             I
  2.003187e-02    1.647344e-01
  1.311609e-01    5.474198e-02
  2.422899e-01    3.982959e-02
  3.534189e-01    3.918627e-02
  4.645479e-01    5.014681e-02
  5.756770e-01    4.428031e-02
  6.868060e-01    3.887012e-02
  7.979350e-01    2.045858e-01
  9.090640e-01    6.361822e-01
  1.020193e+00    1.268739e+00
  1.131322e+00    1.537904e+00
  1.242451e+00    2.366398e+00
  1.353580e+00    2.780296e+00
  1.464709e+00    2.920888e+00
  1.575838e+00    3.143886e+00
  1.686967e+00    3.272102e+00
  1.798096e+00    3.070765e+00
  1.909225e+00    3.067928e+00
  2.020354e+00    3.102168e+00
  2.131483e+00    3.076422e+00
  2.242612e+00    3.269910e+00
  2.353741e+00    3.131567e+00
  2.464870e+00    3.180350e+00
  2.575999e+00    3.185246e+00
  2.687128e+00    3.196639e+00
  2.798257e+00    3.333656e+00
  2.909386e+00    3.359032e+00
  3.020515e+00    3.314889e+00
  3.131644e+00    3.432655e+00
  3.242773e+00    3.548543e+00
  3.353902e+00    3.416125e+00
  3.465031e+00    3.544998e+00
  3.576160e+00    3.400840e+00
  3.687289e+00    3.487346e+00
  3.798418e+00    3.536266e+00
  3.909547e+00    3.494298e+00
  4.020676e+00    3.517286e+00
  4.131806e+00    3.476297e+00
  4.242935e+00    3.553275e+00
  4.354064e+00    3.638170e+00
  4.465193e+00    3.611960e+00
  4.576322e+00    3.632099e+00
  4.687451e+00    3.710880e+00
  4.798580e+00    3.659847e+00
  4.909709e+00    3.528159e+00
  5.020838e+00    3.563859e+00
  5.131967e+00    3.670876e+00
  5.243096e+00    3.632458e+00
  5.354225e+00    3.708907e+00
  5.465354e+00    3.635210e+00
  5.576483e+00    3.522165e+00
  5.687612e+00    3.587116e+00
  5.798741e+00    3.636925e+00
  5.909870e+00    3.526159e+00
  6.020999e+00    3.498539e+00
  6.132128e+00    3.514507e+00
  6.243257e+00    3.551081e+00
  6.354386e+00    3.513697e+00
  6.465515e+00    3.590016e+00
  6.576644e+00    3.536567e+00
  6.687773e+00    3.615423e+00
  6.798902e+00    3.607152e+00
  6.910031e+00    3.538859e+00
  7.021160e+00    3.515816e+00
  7.132289e+00    3.628611e+00
  7.243418e+00    3.528613e+00
  7.354547e+00    3.502958e+00
  7.465676e+00    3.471067e+00
  7.576805e+00    3.488095e+00
  7.687934e+00    3.519605e+00
  7.799063e+00    3.445299e+00
  7.910192e+00    3.459002e+00
  8.021321e+00    3.415054e+00
  8.132450e+00    3.457584e+00
  8.243579e+00    3.416037e+00
  8.354708e+00    3.376161e+00
  8.465837e+00    3.305590e+00
  8.576966e+00    3.333551e+00
  8.688095e+00    3.365595e+00
  8.799224e+00    3.350225e+00
  8.910353e+00    3.303437e+00
  9.021482e+00    3.307293e+00
  9.132611e+00    3.216618e+00
  9.243740e+00    3.289901e+00
  9.354869e+00    3.282178e+00
  9.465998e+00    3.202661e+00
  9.577127e+00    3.207086e+00
  9.688256e+00    3.196140e+00
  9.799385e+00    3.166597e+00
  9.910514e+00    3.108554e+00
  1.002164e+01    3.118126e+00
  1.013277e+01    3.058391e+00
  1.024390e+01    3.073489e+00
  1.035503e+01    3.075599e+00
  1.046616e+01    3.028033e+00
  1.057729e+01    3.022122e+00
  1.068842e+01    3.009006e+00
  1.079955e+01    2.968050e+00
  1.091068e+01    2.856283e+00
  1.102180e+01    2.882227e+00
  1.113293e+01    2.865627e+00
  1.124406e+01    2.861156e+00
  1.135519e+01    2.863462e+00
  1.146632e+01    2.775326e+00
  1.157745e+01    2.821957e+00
  1.168858e+01    2.778929e+00
  1.179971e+01    2.746317e+00
  1.191084e+01    2.766286e+00
  1.202197e+01    2.694916e+00
  1.213309e+01    2.701013e+00
  1.224422e+01    2.697367e+00
  1.235535e+01    2.728189e+00
  1.246648e+01    2.714781e+00
  1.257761e+01    2.695095e+00
  1.268874e+01    2.823607e+00
  1.279987e+01    3.012322e+00
  1.291100e+01    3.638444e+00
  1.302213e+01    6.833780e+00
  1.313326e+01    1.487197e+01
  1.324438e+01    1.077938e+01
  1.335551e+01    4.437996e+00
  1.346664e+01    3.112972e+00
  1.357777e+01    2.719873e+00
  1.368890e+01    2.576098e+00
  1.380003e+01    2.468126e+00
  1.391116e+01    2.415066e+00
  1.402229e+01    2.353942e+00
  1.413342e+01    2.317820e+00
  1.424455e+01    2.307111e+00
  1.435568e+01    2.210801e+00
  1.446680e+01    2.223114e+00
  1.457793e+01    2.222966e+00
  1.468906e+01    2.185620e+00
  1.480019e+01    2.250762e+00
  1.491132e+01    2.277840e+00
  1.502245e+01    2.470009e+00
  1.513358e+01    3.803636e+00
  1.524471e+01    5.698459e+00
  1.535584e+01    3.732614e+00
  1.546697e+01    2.481102e+00
  1.557809e+01    2.123055e+00
  1.568922e+01    2.008791e+00
  1.580035e+01    1.910490e+00
  1.591148e+01    1.884271e+00
  1.602261e+01    1.878433e+00
  1.613374e+01    1.843426e+00
  1.624487e+01    1.781674e+00
  1.635600e+01    1.799470e+00
  1.646713e+01    1.767270e+00
  1.657826e+01    1.755106e+00
  1.668938e+01    1.703010e+00
  1.680051e+01    1.706566e+00
  1.691164e+01    1.666537e+00
  1.702277e+01    1.665833e+00
  1.713390e+01    1.646061e+00
  1.724503e+01    1.645049e+00
  1.735616e+01    1.608093e+00
  1.746729e+01    1.582928e+00
  1.757842e+01    1.580252e+00
  1.768955e+01    1.541462e+00
  1.780067e+01    1.542140e+00
  1.791180e+01    1.562714e+00
  1.802293e+01    1.506232e+00
  1.813406e+01    1.498302e+00
  1.824519e+01    1.493976e+00
  1.835632e+01    1.462446e+00
  1.846745e+01    1.434324e+00
  1.857858e+01    1.425983e+00
  1.868971e+01    1.436646e+00
  1.880084e+01    1.415018e+00
  1.891196e+01    1.394844e+00
  1.902309e+01    1.365745e+00
  1.913422e+01    1.378095e+00
  1.924535e+01    1.338239e+00
  1.935648e+01    1.356878e+00
  1.946761e+01    1.345080e+00
  1.957874e+01    1.307438e+00
  1.968987e+01    1.304641e+00
  1.980100e+01    1.302404e+00
  1.991213e+01    1.297520e+00
  2.002325e+01    1.313889e+00
  2.013438e+01    1.280622e+00
  2.024551e+01    1.280737e+00
  2.035664e+01    1.252906e+00
  2.046777e+01    1.265495e+00
  2.057890e+01    1.218714e+00
  2.069003e+01    1.204481e+00
  2.080116e+01    1.229200e+00
  2.091229e+01    1.207996e+00
  2.102342e+01    1.200736e+00
  2.113455e+01    1.243928e+00
  2.124567e+01    1.230116e+00
  2.135680e+01    1.274314e+00
  2.146793e+01    1.370374e+00
  2.157906e+01    1.626497e+00
  2.169019e+01    2.544298e+00
  2.180132e+01    5.864007e+00
  2.191245e+01    8.729035e+00
  2.202358e+01    3.599603e+00
  2.213471e+01    1.855594e+00
  2.224584e+01    1.392667e+00
  2.235696e+01    1.247999e+00
  2.246809e+01    1.154679e+00
  2.257922e+01    1.100689e+00
  2.269035e+01    1.096494e+00
  2.280148e+01    1.059151e+00
  2.291261e+01    1.047484e+00
  2.302374e+01    1.003086e+00
  2.313487e+01    9.841478e-01
  2.324600e+01    9.881379e-01
  2.335713e+01    9.945909e-01
  2.346825e+01    9.844291e-01
  2.357938e+01    9.596138e-01
  2.369051e+01    9.528776e-01
  2.380164e+01    9.169264e-01
  2.391277e+01    9.001265e-01
  2.402390e+01    9.176104e-01
  2.413503e+01    8.934317e-01
  2.424616e+01    8.900677e-01
  2.435729e+01    9.024989e-01
  2.446842e+01    8.799996e-01
  2.457954e+01    8.939104e-01
  2.469067e+01    8.839383e-01
  2.480180e+01    8.966506e-01
  2.491293e+01    9.013073e-01
  2.502406e+01    9.075350e-01
  2.513519e+01    8.991948e-01
  2.524632e+01    9.384859e-01
  2.535745e+01    9.755211e-01
  2.546858e+01    1.013750e+00
  2.557971e+01    1.136522e+00
  2.569083e+01    1.482743e+00
  2.580196e+01    2.834250e+00
  2.591309e+01    6.318112e+00
  2.602422e+01    5.267554e+00
  2.613535e+01    2.125884e+00
  2.624648e+01    1.338963e+00
  2.635761e+01    1.095508e+00
  2.646874e+01    1.023558e+00
  2.657987e+01    9.891476e-01
  2.669100e+01    9.521133e-01
  2.680212e+01    9.551485e-01
  2.691325e+01    1.009918e+00
  2.702438e+01    1.152932e+00
  2.713551e+01    1.718087e+00
  2.724664e+01    2.049937e+00
  2.735777e+01    1.271958e+00
  2.746890e+01    1.029297e+00
  2.758003e+01    9.453771e-01
  2.769116e+01    8.891470e-01
  2.780229e+01    8.766635e-01
  2.791342e+01    9.130177e-01
  2.802454e+01    8.512863e-01
  2.813567e+01    8.478810e-01
  2.824680e+01    8.559449e-01
  2.835793e+01    8.525570e-01
  2.846906e+01    8.586169e-01
  2.858019e+01    8.400769e-01
  2.869132e+01    8.179708e-01
  2.880245e+01    8.167866e-01
  2.891358e+01    8.405666e-01
  2.902471e+01    8.203249e-01
  2.913583e+01    8.170934e-01
  2.924696e+01    7.999015e-01
  2.935809e+01    7.932336e-01
  2.946922e+01    8.007579e-01
  2.958035e+01    8.166155e-01
  2.969148e+01    7.782895e-01
  2.980261e+01    7.776818e-01
  2.991374e+01    8.053736e-01
  3.002487e+01    8.301305e-01
  3.013600e+01    8.047364e-01
  3.024712e+01    8.016781e-01
  3.035825e+01    8.007832e-01
  3.046938e+01    7.826517e-01
  3.058051e+01    8.057260e-01
  3.069164e+01    7.669094e-01
  3.080277e+01    7.969620e-01
  3.091390e+01    7.751588e-01
  3.102503e+01    8.050632e-01
  3.113616e+01    7.767392e-01
  3.124729e+01    7.839485e-01
  3.135841e+01    8.016569e-01
  3.146954e+01    7.996644e-01
  3.158067e+01    8.982708e-01
  3.169180e+01    9.728717e-01
  3.180293e+01    1.463964e+00
  3.191406e+01    2.056094e+00
  3.202519e+01    1.297969e+00
  3.213632e+01    9.506885e-01
  3.224745e+01    8.224053e-01
  3.235858e+01    8.135393e-01
  3.246970e+01    7.734780e-01
  3.254908e+01    7.958387e-01