Folder: myspot_2024_07/XRD/Reaction conditions (part 52)

File: 2024-07-27_003_Ru-CGO-ex_Reaction_dwell_000023_data_000132.dat
# == pyFAI calibration ==
# Distance Sample to Detector: 0.4 m
# PONI: 9.750e-02, 1.135e-01 m
# Rotations: -0.000175 0.000000 -0.000000 rad
#
# == Fit2d calibration ==
# Distance Sample-beamCenter: 400.000 mm
# Center: x=1514.000, y=1300.000 pix
# Tilt: 0.010 deg  TiltPlanRot: 0.010 deg
#
# Detector Detector	 Spline= None	 PixelSize= 7.500e-05, 7.500e-05 m
#    Detector has a mask: False
#    Detector has a dark current: False
#    detector has a flat field: False
#
# Wavelength: 6.888e-11 m
# Mask applied: user provided
# Dark current applied: False
# Flat field applied: False
# Polarization factor: 0.99
# Normalization factor: 1.0
# --> /home/myspot/data/2024_07_Rosario/Ru-CGO-ex/2024-07-27_003_Ru-CGO-ex_Reaction_dwell_000023_data_000132.dat
#       q_nm^-1             I
  2.003187e-02    1.542462e-01
  1.311609e-01    1.374123e-01
  2.422899e-01    3.373378e-02
  3.534189e-01    2.590074e-02
  4.645479e-01    4.248012e-02
  5.756770e-01    2.241392e-02
  6.868060e-01    2.760384e-02
  7.979350e-01    1.333753e-01
  9.090640e-01    6.341151e-01
  1.020193e+00    1.318572e+00
  1.131322e+00    1.772265e+00
  1.242451e+00    2.346288e+00
  1.353580e+00    2.839500e+00
  1.464709e+00    3.007160e+00
  1.575838e+00    3.230184e+00
  1.686967e+00    3.143126e+00
  1.798096e+00    3.079159e+00
  1.909225e+00    3.154648e+00
  2.020354e+00    2.999070e+00
  2.131483e+00    3.107621e+00
  2.242612e+00    3.132103e+00
  2.353741e+00    3.203947e+00
  2.464870e+00    3.066054e+00
  2.575999e+00    3.178233e+00
  2.687128e+00    3.244511e+00
  2.798257e+00    3.343632e+00
  2.909386e+00    3.314252e+00
  3.020515e+00    3.350081e+00
  3.131644e+00    3.342324e+00
  3.242773e+00    3.399977e+00
  3.353902e+00    3.476380e+00
  3.465031e+00    3.502992e+00
  3.576160e+00    3.385493e+00
  3.687289e+00    3.465092e+00
  3.798418e+00    3.548567e+00
  3.909547e+00    3.553787e+00
  4.020676e+00    3.518153e+00
  4.131806e+00    3.530681e+00
  4.242935e+00    3.613308e+00
  4.354064e+00    3.632158e+00
  4.465193e+00    3.674762e+00
  4.576322e+00    3.691849e+00
  4.687451e+00    3.717818e+00
  4.798580e+00    3.625834e+00
  4.909709e+00    3.602626e+00
  5.020838e+00    3.628879e+00
  5.131967e+00    3.746672e+00
  5.243096e+00    3.639228e+00
  5.354225e+00    3.656354e+00
  5.465354e+00    3.619882e+00
  5.576483e+00    3.525664e+00
  5.687612e+00    3.579304e+00
  5.798741e+00    3.618248e+00
  5.909870e+00    3.576082e+00
  6.020999e+00    3.518905e+00
  6.132128e+00    3.611334e+00
  6.243257e+00    3.550454e+00
  6.354386e+00    3.586876e+00
  6.465515e+00    3.566262e+00
  6.576644e+00    3.618284e+00
  6.687773e+00    3.581442e+00
  6.798902e+00    3.609862e+00
  6.910031e+00    3.650314e+00
  7.021160e+00    3.651238e+00
  7.132289e+00    3.559282e+00
  7.243418e+00    3.508743e+00
  7.354547e+00    3.517371e+00
  7.465676e+00    3.468166e+00
  7.576805e+00    3.458240e+00
  7.687934e+00    3.488598e+00
  7.799063e+00    3.482128e+00
  7.910192e+00    3.435340e+00
  8.021321e+00    3.459229e+00
  8.132450e+00    3.458954e+00
  8.243579e+00    3.480426e+00
  8.354708e+00    3.452341e+00
  8.465837e+00    3.363866e+00
  8.576966e+00    3.345499e+00
  8.688095e+00    3.284279e+00
  8.799224e+00    3.319629e+00
  8.910353e+00    3.352261e+00
  9.021482e+00    3.265376e+00
  9.132611e+00    3.276899e+00
  9.243740e+00    3.307282e+00
  9.354869e+00    3.211064e+00
  9.465998e+00    3.206935e+00
  9.577127e+00    3.259481e+00
  9.688256e+00    3.214282e+00
  9.799385e+00    3.170406e+00
  9.910514e+00    3.160338e+00
  1.002164e+01    3.074608e+00
  1.013277e+01    3.093819e+00
  1.024390e+01    3.076256e+00
  1.035503e+01    3.035779e+00
  1.046616e+01    3.059890e+00
  1.057729e+01    3.026635e+00
  1.068842e+01    3.069194e+00
  1.079955e+01    2.956698e+00
  1.091068e+01    2.902705e+00
  1.102180e+01    2.907297e+00
  1.113293e+01    2.864151e+00
  1.124406e+01    2.841290e+00
  1.135519e+01    2.830019e+00
  1.146632e+01    2.774381e+00
  1.157745e+01    2.754048e+00
  1.168858e+01    2.760864e+00
  1.179971e+01    2.737586e+00
  1.191084e+01    2.797631e+00
  1.202197e+01    2.771420e+00
  1.213309e+01    2.707324e+00
  1.224422e+01    2.690847e+00
  1.235535e+01    2.759263e+00
  1.246648e+01    2.769249e+00
  1.257761e+01    2.766299e+00
  1.268874e+01    2.802212e+00
  1.279987e+01    3.008006e+00
  1.291100e+01    3.685150e+00
  1.302213e+01    6.622688e+00
  1.313326e+01    1.485667e+01
  1.324438e+01    1.087038e+01
  1.335551e+01    4.442633e+00
  1.346664e+01    3.163227e+00
  1.357777e+01    2.776686e+00
  1.368890e+01    2.516263e+00
  1.380003e+01    2.467077e+00
  1.391116e+01    2.409410e+00
  1.402229e+01    2.371778e+00
  1.413342e+01    2.360392e+00
  1.424455e+01    2.327985e+00
  1.435568e+01    2.267160e+00
  1.446680e+01    2.231710e+00
  1.457793e+01    2.207660e+00
  1.468906e+01    2.221079e+00
  1.480019e+01    2.204231e+00
  1.491132e+01    2.209263e+00
  1.502245e+01    2.533802e+00
  1.513358e+01    3.713340e+00
  1.524471e+01    5.719244e+00
  1.535584e+01    3.822102e+00
  1.546697e+01    2.414365e+00
  1.557809e+01    2.156534e+00
  1.568922e+01    2.045901e+00
  1.580035e+01    1.932687e+00
  1.591148e+01    1.903372e+00
  1.602261e+01    1.908141e+00
  1.613374e+01    1.825012e+00
  1.624487e+01    1.837131e+00
  1.635600e+01    1.800113e+00
  1.646713e+01    1.767182e+00
  1.657826e+01    1.772877e+00
  1.668938e+01    1.757554e+00
  1.680051e+01    1.725570e+00
  1.691164e+01    1.701645e+00
  1.702277e+01    1.689135e+00
  1.713390e+01    1.660550e+00
  1.724503e+01    1.633443e+00
  1.735616e+01    1.627232e+00
  1.746729e+01    1.612280e+00
  1.757842e+01    1.599890e+00
  1.768955e+01    1.546623e+00
  1.780067e+01    1.553389e+00
  1.791180e+01    1.523633e+00
  1.802293e+01    1.533303e+00
  1.813406e+01    1.508483e+00
  1.824519e+01    1.488809e+00
  1.835632e+01    1.490589e+00
  1.846745e+01    1.423090e+00
  1.857858e+01    1.416551e+00
  1.868971e+01    1.441918e+00
  1.880084e+01    1.431866e+00
  1.891196e+01    1.407874e+00
  1.902309e+01    1.389502e+00
  1.913422e+01    1.376157e+00
  1.924535e+01    1.352171e+00
  1.935648e+01    1.329871e+00
  1.946761e+01    1.369725e+00
  1.957874e+01    1.312707e+00
  1.968987e+01    1.308694e+00
  1.980100e+01    1.284523e+00
  1.991213e+01    1.320377e+00
  2.002325e+01    1.284282e+00
  2.013438e+01    1.294710e+00
  2.024551e+01    1.287676e+00
  2.035664e+01    1.249640e+00
  2.046777e+01    1.222698e+00
  2.057890e+01    1.235385e+00
  2.069003e+01    1.251326e+00
  2.080116e+01    1.234669e+00
  2.091229e+01    1.245227e+00
  2.102342e+01    1.213374e+00
  2.113455e+01    1.204569e+00
  2.124567e+01    1.259007e+00
  2.135680e+01    1.289606e+00
  2.146793e+01    1.361747e+00
  2.157906e+01    1.613983e+00
  2.169019e+01    2.496873e+00
  2.180132e+01    5.832158e+00
  2.191245e+01    8.746640e+00
  2.202358e+01    3.662695e+00
  2.213471e+01    1.877941e+00
  2.224584e+01    1.397579e+00
  2.235696e+01    1.225224e+00
  2.246809e+01    1.185925e+00
  2.257922e+01    1.139433e+00
  2.269035e+01    1.105284e+00
  2.280148e+01    1.077516e+00
  2.291261e+01    1.066697e+00
  2.302374e+01    1.015867e+00
  2.313487e+01    1.025915e+00
  2.324600e+01    9.978112e-01
  2.335713e+01    1.013705e+00
  2.346825e+01    9.959767e-01
  2.357938e+01    9.650306e-01
  2.369051e+01    9.234064e-01
  2.380164e+01    9.329938e-01
  2.391277e+01    9.154148e-01
  2.402390e+01    9.026451e-01
  2.413503e+01    8.975081e-01
  2.424616e+01    8.777074e-01
  2.435729e+01    9.114699e-01
  2.446842e+01    9.255469e-01
  2.457954e+01    8.837942e-01
  2.469067e+01    8.941581e-01
  2.480180e+01    8.714594e-01
  2.491293e+01    8.767624e-01
  2.502406e+01    8.995157e-01
  2.513519e+01    9.132551e-01
  2.524632e+01    9.509304e-01
  2.535745e+01    9.663805e-01
  2.546858e+01    1.030282e+00
  2.557971e+01    1.159741e+00
  2.569083e+01    1.509753e+00
  2.580196e+01    2.767395e+00
  2.591309e+01    6.302239e+00
  2.602422e+01    5.315243e+00
  2.613535e+01    2.187082e+00
  2.624648e+01    1.373684e+00
  2.635761e+01    1.092988e+00
  2.646874e+01    1.031336e+00
  2.657987e+01    1.012758e+00
  2.669100e+01    9.940618e-01
  2.680212e+01    9.671744e-01
  2.691325e+01    1.007471e+00
  2.702438e+01    1.147104e+00
  2.713551e+01    1.704801e+00
  2.724664e+01    2.091745e+00
  2.735777e+01    1.309150e+00
  2.746890e+01    1.010592e+00
  2.758003e+01    9.553258e-01
  2.769116e+01    9.039329e-01
  2.780229e+01    8.815841e-01
  2.791342e+01    8.820696e-01
  2.802454e+01    8.828889e-01
  2.813567e+01    8.620707e-01
  2.824680e+01    8.529585e-01
  2.835793e+01    8.409488e-01
  2.846906e+01    8.424938e-01
  2.858019e+01    8.640912e-01
  2.869132e+01    8.353963e-01
  2.880245e+01    8.433577e-01
  2.891358e+01    8.160785e-01
  2.902471e+01    8.124767e-01
  2.913583e+01    8.049362e-01
  2.924696e+01    8.176384e-01
  2.935809e+01    8.061671e-01
  2.946922e+01    8.013915e-01
  2.958035e+01    7.917618e-01
  2.969148e+01    7.930818e-01
  2.980261e+01    8.049650e-01
  2.991374e+01    8.380677e-01
  3.002487e+01    8.103618e-01
  3.013600e+01    8.069130e-01
  3.024712e+01    8.114725e-01
  3.035825e+01    7.843802e-01
  3.046938e+01    7.721893e-01
  3.058051e+01    8.018641e-01
  3.069164e+01    7.672649e-01
  3.080277e+01    7.858981e-01
  3.091390e+01    7.786608e-01
  3.102503e+01    7.863082e-01
  3.113616e+01    7.808008e-01
  3.124729e+01    7.939411e-01
  3.135841e+01    8.161103e-01
  3.146954e+01    8.178307e-01
  3.158067e+01    8.550407e-01
  3.169180e+01    9.835249e-01
  3.180293e+01    1.445116e+00
  3.191406e+01    2.054566e+00
  3.202519e+01    1.338370e+00
  3.213632e+01    9.477493e-01
  3.224745e+01    8.452724e-01
  3.235858e+01    7.957640e-01
  3.246970e+01    7.733026e-01
  3.254908e+01    7.828953e-01

File: 2024-07-27_003_Ru-CGO-ex_Reaction_dwell_000023_data_000133.dat
# == pyFAI calibration ==
# Distance Sample to Detector: 0.4 m
# PONI: 9.750e-02, 1.135e-01 m
# Rotations: -0.000175 0.000000 -0.000000 rad
#
# == Fit2d calibration ==
# Distance Sample-beamCenter: 400.000 mm
# Center: x=1514.000, y=1300.000 pix
# Tilt: 0.010 deg  TiltPlanRot: 0.010 deg
#
# Detector Detector	 Spline= None	 PixelSize= 7.500e-05, 7.500e-05 m
#    Detector has a mask: False
#    Detector has a dark current: False
#    detector has a flat field: False
#
# Wavelength: 6.888e-11 m
# Mask applied: user provided
# Dark current applied: False
# Flat field applied: False
# Polarization factor: 0.99
# Normalization factor: 1.0
# --> /home/myspot/data/2024_07_Rosario/Ru-CGO-ex/2024-07-27_003_Ru-CGO-ex_Reaction_dwell_000023_data_000133.dat
#       q_nm^-1             I
  2.003187e-02    1.424646e-01
  1.311609e-01    2.618030e-02
  2.422899e-01    2.126491e-02
  3.534189e-01    1.777546e-02
  4.645479e-01    4.287158e-02
  5.756770e-01    5.573185e-02
  6.868060e-01    1.617809e-02
  7.979350e-01    1.625854e-01
  9.090640e-01    6.327676e-01
  1.020193e+00    1.276059e+00
  1.131322e+00    1.762339e+00
  1.242451e+00    2.335002e+00
  1.353580e+00    2.646308e+00
  1.464709e+00    3.116117e+00
  1.575838e+00    3.254300e+00
  1.686967e+00    3.126422e+00
  1.798096e+00    3.102957e+00
  1.909225e+00    3.043074e+00
  2.020354e+00    3.004185e+00
  2.131483e+00    3.129214e+00
  2.242612e+00    3.122063e+00
  2.353741e+00    3.152820e+00
  2.464870e+00    3.223645e+00
  2.575999e+00    3.255206e+00
  2.687128e+00    3.246508e+00
  2.798257e+00    3.285514e+00
  2.909386e+00    3.334816e+00
  3.020515e+00    3.417057e+00
  3.131644e+00    3.374156e+00
  3.242773e+00    3.519872e+00
  3.353902e+00    3.404387e+00
  3.465031e+00    3.498820e+00
  3.576160e+00    3.488273e+00
  3.687289e+00    3.425159e+00
  3.798418e+00    3.523177e+00
  3.909547e+00    3.524239e+00
  4.020676e+00    3.542364e+00
  4.131806e+00    3.449974e+00
  4.242935e+00    3.615617e+00
  4.354064e+00    3.488433e+00
  4.465193e+00    3.645334e+00
  4.576322e+00    3.543226e+00
  4.687451e+00    3.695373e+00
  4.798580e+00    3.669090e+00
  4.909709e+00    3.644072e+00
  5.020838e+00    3.658187e+00
  5.131967e+00    3.665766e+00
  5.243096e+00    3.704547e+00
  5.354225e+00    3.752580e+00
  5.465354e+00    3.650559e+00
  5.576483e+00    3.620385e+00
  5.687612e+00    3.678889e+00
  5.798741e+00    3.476684e+00
  5.909870e+00    3.563448e+00
  6.020999e+00    3.482531e+00
  6.132128e+00    3.632631e+00
  6.243257e+00    3.506261e+00
  6.354386e+00    3.652422e+00
  6.465515e+00    3.553713e+00
  6.576644e+00    3.547688e+00
  6.687773e+00    3.435356e+00
  6.798902e+00    3.591096e+00
  6.910031e+00    3.532461e+00
  7.021160e+00    3.582232e+00
  7.132289e+00    3.552100e+00
  7.243418e+00    3.491848e+00
  7.354547e+00    3.568306e+00
  7.465676e+00    3.504468e+00
  7.576805e+00    3.468844e+00
  7.687934e+00    3.471802e+00
  7.799063e+00    3.437483e+00
  7.910192e+00    3.436160e+00
  8.021321e+00    3.523384e+00
  8.132450e+00    3.428722e+00
  8.243579e+00    3.418767e+00
  8.354708e+00    3.431474e+00
  8.465837e+00    3.398570e+00
  8.576966e+00    3.349400e+00
  8.688095e+00    3.318343e+00
  8.799224e+00    3.417555e+00
  8.910353e+00    3.273503e+00
  9.021482e+00    3.297616e+00
  9.132611e+00    3.289277e+00
  9.243740e+00    3.274300e+00
  9.354869e+00    3.313926e+00
  9.465998e+00    3.215582e+00
  9.577127e+00    3.270494e+00
  9.688256e+00    3.170781e+00
  9.799385e+00    3.194505e+00
  9.910514e+00    3.202166e+00
  1.002164e+01    3.150862e+00
  1.013277e+01    3.042722e+00
  1.024390e+01    3.084452e+00
  1.035503e+01    2.979331e+00
  1.046616e+01    3.074522e+00
  1.057729e+01    3.067938e+00
  1.068842e+01    3.023416e+00
  1.079955e+01    2.934342e+00
  1.091068e+01    2.928468e+00
  1.102180e+01    2.859971e+00
  1.113293e+01    2.867090e+00
  1.124406e+01    2.902776e+00
  1.135519e+01    2.830227e+00
  1.146632e+01    2.772333e+00
  1.157745e+01    2.815999e+00
  1.168858e+01    2.801067e+00
  1.179971e+01    2.817428e+00
  1.191084e+01    2.721943e+00
  1.202197e+01    2.705215e+00
  1.213309e+01    2.719154e+00
  1.224422e+01    2.693374e+00
  1.235535e+01    2.707902e+00
  1.246648e+01    2.715995e+00
  1.257761e+01    2.748461e+00
  1.268874e+01    2.804389e+00
  1.279987e+01    3.029477e+00
  1.291100e+01    3.624665e+00
  1.302213e+01    6.681559e+00
  1.313326e+01    1.468599e+01
  1.324438e+01    1.070937e+01
  1.335551e+01    4.554512e+00
  1.346664e+01    3.145216e+00
  1.357777e+01    2.776131e+00
  1.368890e+01    2.597110e+00
  1.380003e+01    2.451061e+00
  1.391116e+01    2.389488e+00
  1.402229e+01    2.373198e+00
  1.413342e+01    2.367431e+00
  1.424455e+01    2.296238e+00
  1.435568e+01    2.256137e+00
  1.446680e+01    2.246309e+00
  1.457793e+01    2.201231e+00
  1.468906e+01    2.211190e+00
  1.480019e+01    2.261629e+00
  1.491132e+01    2.212562e+00
  1.502245e+01    2.532986e+00
  1.513358e+01    3.763487e+00
  1.524471e+01    5.672186e+00
  1.535584e+01    3.789457e+00
  1.546697e+01    2.419270e+00
  1.557809e+01    2.112424e+00
  1.568922e+01    2.022552e+00
  1.580035e+01    1.925616e+00
  1.591148e+01    1.904891e+00
  1.602261e+01    1.876551e+00
  1.613374e+01    1.855731e+00
  1.624487e+01    1.841364e+00
  1.635600e+01    1.768422e+00
  1.646713e+01    1.790767e+00
  1.657826e+01    1.751796e+00
  1.668938e+01    1.739729e+00
  1.680051e+01    1.685249e+00
  1.691164e+01    1.669298e+00
  1.702277e+01    1.669118e+00
  1.713390e+01    1.668972e+00
  1.724503e+01    1.660950e+00
  1.735616e+01    1.626379e+00
  1.746729e+01    1.609465e+00
  1.757842e+01    1.575714e+00
  1.768955e+01    1.567552e+00
  1.780067e+01    1.572647e+00
  1.791180e+01    1.539056e+00
  1.802293e+01    1.513252e+00
  1.813406e+01    1.519260e+00
  1.824519e+01    1.471292e+00
  1.835632e+01    1.450809e+00
  1.846745e+01    1.461179e+00
  1.857858e+01    1.458897e+00
  1.868971e+01    1.450634e+00
  1.880084e+01    1.416117e+00
  1.891196e+01    1.398464e+00
  1.902309e+01    1.363731e+00
  1.913422e+01    1.398556e+00
  1.924535e+01    1.356003e+00
  1.935648e+01    1.338405e+00
  1.946761e+01    1.346987e+00
  1.957874e+01    1.327122e+00
  1.968987e+01    1.299239e+00
  1.980100e+01    1.285621e+00
  1.991213e+01    1.305581e+00
  2.002325e+01    1.258210e+00
  2.013438e+01    1.267989e+00
  2.024551e+01    1.289953e+00
  2.035664e+01    1.268413e+00
  2.046777e+01    1.239078e+00
  2.057890e+01    1.237067e+00
  2.069003e+01    1.243190e+00
  2.080116e+01    1.221044e+00
  2.091229e+01    1.238569e+00
  2.102342e+01    1.231969e+00
  2.113455e+01    1.225632e+00
  2.124567e+01    1.205726e+00
  2.135680e+01    1.269661e+00
  2.146793e+01    1.377837e+00
  2.157906e+01    1.628790e+00
  2.169019e+01    2.500598e+00
  2.180132e+01    5.881314e+00
  2.191245e+01    8.679494e+00
  2.202358e+01    3.665987e+00
  2.213471e+01    1.868997e+00
  2.224584e+01    1.403091e+00
  2.235696e+01    1.244431e+00
  2.246809e+01    1.166118e+00
  2.257922e+01    1.125186e+00
  2.269035e+01    1.100333e+00
  2.280148e+01    1.057964e+00
  2.291261e+01    1.041961e+00
  2.302374e+01    1.023846e+00
  2.313487e+01    1.027170e+00
  2.324600e+01    9.902418e-01
  2.335713e+01    9.649208e-01
  2.346825e+01    9.836863e-01
  2.357938e+01    9.639259e-01
  2.369051e+01    9.427243e-01
  2.380164e+01    9.260819e-01
  2.391277e+01    9.204970e-01
  2.402390e+01    9.037207e-01
  2.413503e+01    8.988853e-01
  2.424616e+01    8.823057e-01
  2.435729e+01    8.929783e-01
  2.446842e+01    8.892906e-01
  2.457954e+01    8.862343e-01
  2.469067e+01    8.843403e-01
  2.480180e+01    8.743268e-01
  2.491293e+01    8.951517e-01
  2.502406e+01    9.018179e-01
  2.513519e+01    9.189517e-01
  2.524632e+01    9.424402e-01
  2.535745e+01    9.729577e-01
  2.546858e+01    1.031990e+00
  2.557971e+01    1.146209e+00
  2.569083e+01    1.512371e+00
  2.580196e+01    2.775430e+00
  2.591309e+01    6.342752e+00
  2.602422e+01    5.286100e+00
  2.613535e+01    2.150941e+00
  2.624648e+01    1.342547e+00
  2.635761e+01    1.124499e+00
  2.646874e+01    1.016941e+00
  2.657987e+01    9.838354e-01
  2.669100e+01    9.764737e-01
  2.680212e+01    9.628854e-01
  2.691325e+01    1.019694e+00
  2.702438e+01    1.170602e+00
  2.713551e+01    1.712312e+00
  2.724664e+01    2.072234e+00
  2.735777e+01    1.294880e+00
  2.746890e+01    1.019876e+00
  2.758003e+01    9.408863e-01
  2.769116e+01    8.754320e-01
  2.780229e+01    9.013739e-01
  2.791342e+01    8.771204e-01
  2.802454e+01    8.613326e-01
  2.813567e+01    8.543764e-01
  2.824680e+01    8.513800e-01
  2.835793e+01    8.524542e-01
  2.846906e+01    8.392124e-01
  2.858019e+01    8.418680e-01
  2.869132e+01    8.507421e-01
  2.880245e+01    8.193309e-01
  2.891358e+01    8.244007e-01
  2.902471e+01    8.047295e-01
  2.913583e+01    8.176866e-01
  2.924696e+01    8.157546e-01
  2.935809e+01    7.975580e-01
  2.946922e+01    8.135439e-01
  2.958035e+01    8.030918e-01
  2.969148e+01    8.238190e-01
  2.980261e+01    8.158383e-01
  2.991374e+01    7.899643e-01
  3.002487e+01    8.028273e-01
  3.013600e+01    8.125137e-01
  3.024712e+01    7.761323e-01
  3.035825e+01    7.824202e-01
  3.046938e+01    7.918180e-01
  3.058051e+01    7.949343e-01
  3.069164e+01    7.924088e-01
  3.080277e+01    7.911626e-01
  3.091390e+01    7.929360e-01
  3.102503e+01    7.843882e-01
  3.113616e+01    7.797679e-01
  3.124729e+01    7.944319e-01
  3.135841e+01    7.747674e-01
  3.146954e+01    8.167632e-01
  3.158067e+01    8.626606e-01
  3.169180e+01    1.005166e+00
  3.180293e+01    1.477664e+00
  3.191406e+01    2.088859e+00
  3.202519e+01    1.327945e+00
  3.213632e+01    9.430088e-01
  3.224745e+01    8.181610e-01
  3.235858e+01    8.013951e-01
  3.246970e+01    7.748368e-01
  3.254908e+01    7.997437e-01