Folder: myspot_2024_07/XRD/Reaction conditions (part 16)

File: 2024-07-27_003_Ru-CGO-ex_Reaction_dwell_000023_data_000040.dat
# == pyFAI calibration ==
# Distance Sample to Detector: 0.4 m
# PONI: 9.750e-02, 1.135e-01 m
# Rotations: -0.000175 0.000000 -0.000000 rad
#
# == Fit2d calibration ==
# Distance Sample-beamCenter: 400.000 mm
# Center: x=1514.000, y=1300.000 pix
# Tilt: 0.010 deg  TiltPlanRot: 0.010 deg
#
# Detector Detector	 Spline= None	 PixelSize= 7.500e-05, 7.500e-05 m
#    Detector has a mask: False
#    Detector has a dark current: False
#    detector has a flat field: False
#
# Wavelength: 6.888e-11 m
# Mask applied: user provided
# Dark current applied: False
# Flat field applied: False
# Polarization factor: 0.99
# Normalization factor: 1.0
# --> /home/myspot/data/2024_07_Rosario/Ru-CGO-ex/2024-07-27_003_Ru-CGO-ex_Reaction_dwell_000023_data_000040.dat
#       q_nm^-1             I
  2.003187e-02    0.000000e+00
  1.311609e-01    8.333918e-02
  2.422899e-01    1.568283e-02
  3.534189e-01    7.335477e-02
  4.645479e-01    2.964723e-02
  5.756770e-01    3.967734e-02
  6.868060e-01    4.772464e-02
  7.979350e-01    1.552673e-01
  9.090640e-01    6.467025e-01
  1.020193e+00    1.146139e+00
  1.131322e+00    1.553744e+00
  1.242451e+00    2.305808e+00
  1.353580e+00    2.740396e+00
  1.464709e+00    3.061705e+00
  1.575838e+00    3.032353e+00
  1.686967e+00    2.999586e+00
  1.798096e+00    3.073423e+00
  1.909225e+00    2.967301e+00
  2.020354e+00    3.154509e+00
  2.131483e+00    3.053217e+00
  2.242612e+00    3.025615e+00
  2.353741e+00    3.048793e+00
  2.464870e+00    3.241668e+00
  2.575999e+00    3.159462e+00
  2.687128e+00    3.246030e+00
  2.798257e+00    3.304901e+00
  2.909386e+00    3.345609e+00
  3.020515e+00    3.398427e+00
  3.131644e+00    3.329094e+00
  3.242773e+00    3.237385e+00
  3.353902e+00    3.389684e+00
  3.465031e+00    3.465975e+00
  3.576160e+00    3.482677e+00
  3.687289e+00    3.433026e+00
  3.798418e+00    3.514756e+00
  3.909547e+00    3.616221e+00
  4.020676e+00    3.564903e+00
  4.131806e+00    3.597707e+00
  4.242935e+00    3.560324e+00
  4.354064e+00    3.513549e+00
  4.465193e+00    3.684096e+00
  4.576322e+00    3.682655e+00
  4.687451e+00    3.661794e+00
  4.798580e+00    3.635465e+00
  4.909709e+00    3.663033e+00
  5.020838e+00    3.664551e+00
  5.131967e+00    3.626745e+00
  5.243096e+00    3.694070e+00
  5.354225e+00    3.693083e+00
  5.465354e+00    3.519345e+00
  5.576483e+00    3.653534e+00
  5.687612e+00    3.642761e+00
  5.798741e+00    3.528078e+00
  5.909870e+00    3.604573e+00
  6.020999e+00    3.595109e+00
  6.132128e+00    3.669998e+00
  6.243257e+00    3.534127e+00
  6.354386e+00    3.553638e+00
  6.465515e+00    3.557937e+00
  6.576644e+00    3.501572e+00
  6.687773e+00    3.588603e+00
  6.798902e+00    3.565434e+00
  6.910031e+00    3.593570e+00
  7.021160e+00    3.465400e+00
  7.132289e+00    3.483248e+00
  7.243418e+00    3.514436e+00
  7.354547e+00    3.519625e+00
  7.465676e+00    3.468493e+00
  7.576805e+00    3.535646e+00
  7.687934e+00    3.457473e+00
  7.799063e+00    3.457634e+00
  7.910192e+00    3.477458e+00
  8.021321e+00    3.393163e+00
  8.132450e+00    3.485867e+00
  8.243579e+00    3.521454e+00
  8.354708e+00    3.455401e+00
  8.465837e+00    3.390718e+00
  8.576966e+00    3.326869e+00
  8.688095e+00    3.370430e+00
  8.799224e+00    3.356826e+00
  8.910353e+00    3.310528e+00
  9.021482e+00    3.251105e+00
  9.132611e+00    3.208794e+00
  9.243740e+00    3.246115e+00
  9.354869e+00    3.313229e+00
  9.465998e+00    3.169741e+00
  9.577127e+00    3.304751e+00
  9.688256e+00    3.216059e+00
  9.799385e+00    3.121350e+00
  9.910514e+00    3.146450e+00
  1.002164e+01    3.074914e+00
  1.013277e+01    3.152313e+00
  1.024390e+01    3.039118e+00
  1.035503e+01    3.114207e+00
  1.046616e+01    3.051754e+00
  1.057729e+01    3.025084e+00
  1.068842e+01    2.988837e+00
  1.079955e+01    2.957610e+00
  1.091068e+01    2.956030e+00
  1.102180e+01    2.888652e+00
  1.113293e+01    2.897227e+00
  1.124406e+01    2.819597e+00
  1.135519e+01    2.797693e+00
  1.146632e+01    2.772291e+00
  1.157745e+01    2.740881e+00
  1.168858e+01    2.765180e+00
  1.179971e+01    2.735500e+00
  1.191084e+01    2.739956e+00
  1.202197e+01    2.702818e+00
  1.213309e+01    2.719168e+00
  1.224422e+01    2.686782e+00
  1.235535e+01    2.709750e+00
  1.246648e+01    2.735470e+00
  1.257761e+01    2.771163e+00
  1.268874e+01    2.773511e+00
  1.279987e+01    3.058880e+00
  1.291100e+01    3.687380e+00
  1.302213e+01    6.772038e+00
  1.313326e+01    1.502779e+01
  1.324438e+01    1.072994e+01
  1.335551e+01    4.475434e+00
  1.346664e+01    3.101878e+00
  1.357777e+01    2.724394e+00
  1.368890e+01    2.552343e+00
  1.380003e+01    2.468884e+00
  1.391116e+01    2.427134e+00
  1.402229e+01    2.358714e+00
  1.413342e+01    2.369653e+00
  1.424455e+01    2.321114e+00
  1.435568e+01    2.303464e+00
  1.446680e+01    2.241290e+00
  1.457793e+01    2.211669e+00
  1.468906e+01    2.235018e+00
  1.480019e+01    2.175481e+00
  1.491132e+01    2.250007e+00
  1.502245e+01    2.519058e+00
  1.513358e+01    3.869131e+00
  1.524471e+01    5.801142e+00
  1.535584e+01    3.778344e+00
  1.546697e+01    2.475893e+00
  1.557809e+01    2.102917e+00
  1.568922e+01    2.010371e+00
  1.580035e+01    1.943236e+00
  1.591148e+01    1.878112e+00
  1.602261e+01    1.921093e+00
  1.613374e+01    1.883317e+00
  1.624487e+01    1.778049e+00
  1.635600e+01    1.808374e+00
  1.646713e+01    1.768652e+00
  1.657826e+01    1.760670e+00
  1.668938e+01    1.718449e+00
  1.680051e+01    1.695635e+00
  1.691164e+01    1.666658e+00
  1.702277e+01    1.675801e+00
  1.713390e+01    1.611189e+00
  1.724503e+01    1.605888e+00
  1.735616e+01    1.651292e+00
  1.746729e+01    1.578489e+00
  1.757842e+01    1.573774e+00
  1.768955e+01    1.588084e+00
  1.780067e+01    1.515405e+00
  1.791180e+01    1.542066e+00
  1.802293e+01    1.498831e+00
  1.813406e+01    1.489262e+00
  1.824519e+01    1.493913e+00
  1.835632e+01    1.453479e+00
  1.846745e+01    1.443243e+00
  1.857858e+01    1.428976e+00
  1.868971e+01    1.431303e+00
  1.880084e+01    1.422887e+00
  1.891196e+01    1.411523e+00
  1.902309e+01    1.385365e+00
  1.913422e+01    1.381858e+00
  1.924535e+01    1.360924e+00
  1.935648e+01    1.303912e+00
  1.946761e+01    1.330440e+00
  1.957874e+01    1.309379e+00
  1.968987e+01    1.324669e+00
  1.980100e+01    1.327271e+00
  1.991213e+01    1.284864e+00
  2.002325e+01    1.276761e+00
  2.013438e+01    1.278990e+00
  2.024551e+01    1.256264e+00
  2.035664e+01    1.261756e+00
  2.046777e+01    1.254138e+00
  2.057890e+01    1.242254e+00
  2.069003e+01    1.262340e+00
  2.080116e+01    1.208663e+00
  2.091229e+01    1.223820e+00
  2.102342e+01    1.236791e+00
  2.113455e+01    1.259835e+00
  2.124567e+01    1.266434e+00
  2.135680e+01    1.262331e+00
  2.146793e+01    1.370042e+00
  2.157906e+01    1.635635e+00
  2.169019e+01    2.575669e+00
  2.180132e+01    5.975922e+00
  2.191245e+01    8.739320e+00
  2.202358e+01    3.641104e+00
  2.213471e+01    1.895885e+00
  2.224584e+01    1.424811e+00
  2.235696e+01    1.227284e+00
  2.246809e+01    1.167212e+00
  2.257922e+01    1.128904e+00
  2.269035e+01    1.105810e+00
  2.280148e+01    1.064060e+00
  2.291261e+01    1.063456e+00
  2.302374e+01    1.025073e+00
  2.313487e+01    1.008249e+00
  2.324600e+01    9.967602e-01
  2.335713e+01    9.848772e-01
  2.346825e+01    9.770483e-01
  2.357938e+01    9.862572e-01
  2.369051e+01    9.488653e-01
  2.380164e+01    9.346539e-01
  2.391277e+01    9.219100e-01
  2.402390e+01    8.949330e-01
  2.413503e+01    9.184567e-01
  2.424616e+01    8.745965e-01
  2.435729e+01    8.901696e-01
  2.446842e+01    9.012448e-01
  2.457954e+01    9.047034e-01
  2.469067e+01    8.753390e-01
  2.480180e+01    9.031467e-01
  2.491293e+01    8.938425e-01
  2.502406e+01    8.907906e-01
  2.513519e+01    9.163129e-01
  2.524632e+01    9.237483e-01
  2.535745e+01    9.904046e-01
  2.546858e+01    1.056193e+00
  2.557971e+01    1.160306e+00
  2.569083e+01    1.496317e+00
  2.580196e+01    2.856189e+00
  2.591309e+01    6.439036e+00
  2.602422e+01    5.240005e+00
  2.613535e+01    2.113971e+00
  2.624648e+01    1.332459e+00
  2.635761e+01    1.111190e+00
  2.646874e+01    1.033797e+00
  2.657987e+01    9.634137e-01
  2.669100e+01    9.604586e-01
  2.680212e+01    9.626839e-01
  2.691325e+01    1.011844e+00
  2.702438e+01    1.168679e+00
  2.713551e+01    1.791319e+00
  2.724664e+01    2.067989e+00
  2.735777e+01    1.287959e+00
  2.746890e+01    1.008795e+00
  2.758003e+01    9.724855e-01
  2.769116e+01    8.994579e-01
  2.780229e+01    9.063506e-01
  2.791342e+01    8.779340e-01
  2.802454e+01    8.759983e-01
  2.813567e+01    8.513016e-01
  2.824680e+01    8.713804e-01
  2.835793e+01    8.544453e-01
  2.846906e+01    8.355344e-01
  2.858019e+01    8.328899e-01
  2.869132e+01    8.386998e-01
  2.880245e+01    8.484108e-01
  2.891358e+01    8.211702e-01
  2.902471e+01    8.219944e-01
  2.913583e+01    8.329803e-01
  2.924696e+01    8.183880e-01
  2.935809e+01    8.080903e-01
  2.946922e+01    8.030526e-01
  2.958035e+01    8.110138e-01
  2.969148e+01    8.195477e-01
  2.980261e+01    8.043117e-01
  2.991374e+01    8.166679e-01
  3.002487e+01    8.002738e-01
  3.013600e+01    7.977676e-01
  3.024712e+01    7.810960e-01
  3.035825e+01    7.706851e-01
  3.046938e+01    7.586820e-01
  3.058051e+01    7.851034e-01
  3.069164e+01    7.817156e-01
  3.080277e+01    7.914227e-01
  3.091390e+01    7.848368e-01
  3.102503e+01    7.874983e-01
  3.113616e+01    7.986940e-01
  3.124729e+01    7.990471e-01
  3.135841e+01    8.268107e-01
  3.146954e+01    8.147356e-01
  3.158067e+01    8.520465e-01
  3.169180e+01    1.032748e+00
  3.180293e+01    1.448480e+00
  3.191406e+01    2.098392e+00
  3.202519e+01    1.296201e+00
  3.213632e+01    9.741612e-01
  3.224745e+01    8.372173e-01
  3.235858e+01    8.144261e-01
  3.246970e+01    7.719789e-01
  3.254908e+01    7.719228e-01

File: 2024-07-27_003_Ru-CGO-ex_Reaction_dwell_000023_data_000041.dat
# == pyFAI calibration ==
# Distance Sample to Detector: 0.4 m
# PONI: 9.750e-02, 1.135e-01 m
# Rotations: -0.000175 0.000000 -0.000000 rad
#
# == Fit2d calibration ==
# Distance Sample-beamCenter: 400.000 mm
# Center: x=1514.000, y=1300.000 pix
# Tilt: 0.010 deg  TiltPlanRot: 0.010 deg
#
# Detector Detector	 Spline= None	 PixelSize= 7.500e-05, 7.500e-05 m
#    Detector has a mask: False
#    Detector has a dark current: False
#    detector has a flat field: False
#
# Wavelength: 6.888e-11 m
# Mask applied: user provided
# Dark current applied: False
# Flat field applied: False
# Polarization factor: 0.99
# Normalization factor: 1.0
# --> /home/myspot/data/2024_07_Rosario/Ru-CGO-ex/2024-07-27_003_Ru-CGO-ex_Reaction_dwell_000023_data_000041.dat
#       q_nm^-1             I
  2.003187e-02    0.000000e+00
  1.311609e-01    2.918416e-02
  2.422899e-01    2.980923e-02
  3.534189e-01    1.961476e-02
  4.645479e-01    3.107246e-02
  5.756770e-01    3.419619e-02
  6.868060e-01    3.986064e-02
  7.979350e-01    2.186877e-01
  9.090640e-01    6.654532e-01
  1.020193e+00    1.105736e+00
  1.131322e+00    1.565828e+00
  1.242451e+00    2.397158e+00
  1.353580e+00    2.706001e+00
  1.464709e+00    2.991961e+00
  1.575838e+00    3.162780e+00
  1.686967e+00    3.212412e+00
  1.798096e+00    3.010350e+00
  1.909225e+00    3.136467e+00
  2.020354e+00    3.083068e+00
  2.131483e+00    3.048644e+00
  2.242612e+00    3.187386e+00
  2.353741e+00    3.089395e+00
  2.464870e+00    3.186606e+00
  2.575999e+00    3.226517e+00
  2.687128e+00    3.284367e+00
  2.798257e+00    3.269791e+00
  2.909386e+00    3.364052e+00
  3.020515e+00    3.352054e+00
  3.131644e+00    3.386314e+00
  3.242773e+00    3.402908e+00
  3.353902e+00    3.482501e+00
  3.465031e+00    3.406763e+00
  3.576160e+00    3.443082e+00
  3.687289e+00    3.369177e+00
  3.798418e+00    3.569564e+00
  3.909547e+00    3.498389e+00
  4.020676e+00    3.605151e+00
  4.131806e+00    3.544762e+00
  4.242935e+00    3.630038e+00
  4.354064e+00    3.615143e+00
  4.465193e+00    3.569003e+00
  4.576322e+00    3.634573e+00
  4.687451e+00    3.631390e+00
  4.798580e+00    3.712271e+00
  4.909709e+00    3.651899e+00
  5.020838e+00    3.585199e+00
  5.131967e+00    3.599508e+00
  5.243096e+00    3.717214e+00
  5.354225e+00    3.643929e+00
  5.465354e+00    3.752785e+00
  5.576483e+00    3.670488e+00
  5.687612e+00    3.560723e+00
  5.798741e+00    3.599451e+00
  5.909870e+00    3.589827e+00
  6.020999e+00    3.494354e+00
  6.132128e+00    3.666070e+00
  6.243257e+00    3.623442e+00
  6.354386e+00    3.564922e+00
  6.465515e+00    3.575172e+00
  6.576644e+00    3.541709e+00
  6.687773e+00    3.547238e+00
  6.798902e+00    3.534722e+00
  6.910031e+00    3.465886e+00
  7.021160e+00    3.498014e+00
  7.132289e+00    3.579895e+00
  7.243418e+00    3.538731e+00
  7.354547e+00    3.520361e+00
  7.465676e+00    3.516056e+00
  7.576805e+00    3.462719e+00
  7.687934e+00    3.507736e+00
  7.799063e+00    3.492244e+00
  7.910192e+00    3.519814e+00
  8.021321e+00    3.427063e+00
  8.132450e+00    3.495045e+00
  8.243579e+00    3.403254e+00
  8.354708e+00    3.391426e+00
  8.465837e+00    3.355988e+00
  8.576966e+00    3.298356e+00
  8.688095e+00    3.323268e+00
  8.799224e+00    3.283493e+00
  8.910353e+00    3.364041e+00
  9.021482e+00    3.282207e+00
  9.132611e+00    3.201894e+00
  9.243740e+00    3.321713e+00
  9.354869e+00    3.214487e+00
  9.465998e+00    3.245418e+00
  9.577127e+00    3.258355e+00
  9.688256e+00    3.213238e+00
  9.799385e+00    3.223040e+00
  9.910514e+00    3.161112e+00
  1.002164e+01    3.141613e+00
  1.013277e+01    3.107713e+00
  1.024390e+01    3.064701e+00
  1.035503e+01    3.047512e+00
  1.046616e+01    2.998375e+00
  1.057729e+01    3.031055e+00
  1.068842e+01    2.968953e+00
  1.079955e+01    2.967525e+00
  1.091068e+01    2.903953e+00
  1.102180e+01    2.921191e+00
  1.113293e+01    2.866503e+00
  1.124406e+01    2.872241e+00
  1.135519e+01    2.871295e+00
  1.146632e+01    2.772354e+00
  1.157745e+01    2.797412e+00
  1.168858e+01    2.743510e+00
  1.179971e+01    2.733468e+00
  1.191084e+01    2.681496e+00
  1.202197e+01    2.743367e+00
  1.213309e+01    2.761236e+00
  1.224422e+01    2.672716e+00
  1.235535e+01    2.646567e+00
  1.246648e+01    2.687959e+00
  1.257761e+01    2.780061e+00
  1.268874e+01    2.848366e+00
  1.279987e+01    3.048573e+00
  1.291100e+01    3.670714e+00
  1.302213e+01    6.745990e+00
  1.313326e+01    1.490157e+01
  1.324438e+01    1.059746e+01
  1.335551e+01    4.410151e+00
  1.346664e+01    3.108498e+00
  1.357777e+01    2.765691e+00
  1.368890e+01    2.561478e+00
  1.380003e+01    2.507485e+00
  1.391116e+01    2.397584e+00
  1.402229e+01    2.386644e+00
  1.413342e+01    2.351896e+00
  1.424455e+01    2.312872e+00
  1.435568e+01    2.280561e+00
  1.446680e+01    2.286266e+00
  1.457793e+01    2.222763e+00
  1.468906e+01    2.211010e+00
  1.480019e+01    2.191046e+00
  1.491132e+01    2.266682e+00
  1.502245e+01    2.512421e+00
  1.513358e+01    3.870367e+00
  1.524471e+01    5.758966e+00
  1.535584e+01    3.752746e+00
  1.546697e+01    2.438725e+00
  1.557809e+01    2.121805e+00
  1.568922e+01    2.002879e+00
  1.580035e+01    1.955228e+00
  1.591148e+01    1.919575e+00
  1.602261e+01    1.873663e+00
  1.613374e+01    1.844197e+00
  1.624487e+01    1.821542e+00
  1.635600e+01    1.787270e+00
  1.646713e+01    1.780162e+00
  1.657826e+01    1.725343e+00
  1.668938e+01    1.709972e+00
  1.680051e+01    1.722953e+00
  1.691164e+01    1.711194e+00
  1.702277e+01    1.697068e+00
  1.713390e+01    1.650270e+00
  1.724503e+01    1.641243e+00
  1.735616e+01    1.594973e+00
  1.746729e+01    1.632068e+00
  1.757842e+01    1.572056e+00
  1.768955e+01    1.552529e+00
  1.780067e+01    1.550032e+00
  1.791180e+01    1.530621e+00
  1.802293e+01    1.510051e+00
  1.813406e+01    1.515113e+00
  1.824519e+01    1.508824e+00
  1.835632e+01    1.443003e+00
  1.846745e+01    1.413730e+00
  1.857858e+01    1.428548e+00
  1.868971e+01    1.408193e+00
  1.880084e+01    1.390581e+00
  1.891196e+01    1.387141e+00
  1.902309e+01    1.387947e+00
  1.913422e+01    1.359924e+00
  1.924535e+01    1.357882e+00
  1.935648e+01    1.352575e+00
  1.946761e+01    1.318203e+00
  1.957874e+01    1.326762e+00
  1.968987e+01    1.298097e+00
  1.980100e+01    1.286257e+00
  1.991213e+01    1.283362e+00
  2.002325e+01    1.259173e+00
  2.013438e+01    1.239606e+00
  2.024551e+01    1.258953e+00
  2.035664e+01    1.252623e+00
  2.046777e+01    1.252968e+00
  2.057890e+01    1.248872e+00
  2.069003e+01    1.235898e+00
  2.080116e+01    1.225087e+00
  2.091229e+01    1.223126e+00
  2.102342e+01    1.227858e+00
  2.113455e+01    1.246236e+00
  2.124567e+01    1.237198e+00
  2.135680e+01    1.299776e+00
  2.146793e+01    1.382274e+00
  2.157906e+01    1.645928e+00
  2.169019e+01    2.562539e+00
  2.180132e+01    5.985203e+00
  2.191245e+01    8.754179e+00
  2.202358e+01    3.612768e+00
  2.213471e+01    1.845989e+00
  2.224584e+01    1.418706e+00
  2.235696e+01    1.232219e+00
  2.246809e+01    1.157541e+00
  2.257922e+01    1.117757e+00
  2.269035e+01    1.089670e+00
  2.280148e+01    1.059133e+00
  2.291261e+01    1.027805e+00
  2.302374e+01    1.021365e+00
  2.313487e+01    1.003985e+00
  2.324600e+01    9.910700e-01
  2.335713e+01    9.658420e-01
  2.346825e+01    9.662298e-01
  2.357938e+01    9.483476e-01
  2.369051e+01    9.450775e-01
  2.380164e+01    9.250533e-01
  2.391277e+01    9.102375e-01
  2.402390e+01    9.024081e-01
  2.413503e+01    9.165580e-01
  2.424616e+01    8.973825e-01
  2.435729e+01    8.938771e-01
  2.446842e+01    9.040886e-01
  2.457954e+01    8.757102e-01
  2.469067e+01    8.939316e-01
  2.480180e+01    8.855246e-01
  2.491293e+01    8.899567e-01
  2.502406e+01    9.074395e-01
  2.513519e+01    9.179316e-01
  2.524632e+01    9.333891e-01
  2.535745e+01    9.812321e-01
  2.546858e+01    1.045808e+00
  2.557971e+01    1.164301e+00
  2.569083e+01    1.507603e+00
  2.580196e+01    2.874781e+00
  2.591309e+01    6.502110e+00
  2.602422e+01    5.213928e+00
  2.613535e+01    2.101757e+00
  2.624648e+01    1.327292e+00
  2.635761e+01    1.056823e+00
  2.646874e+01    1.025911e+00
  2.657987e+01    9.826837e-01
  2.669100e+01    9.731438e-01
  2.680212e+01    9.909982e-01
  2.691325e+01    1.006894e+00
  2.702438e+01    1.135631e+00
  2.713551e+01    1.778880e+00
  2.724664e+01    2.079741e+00
  2.735777e+01    1.264360e+00
  2.746890e+01    1.009843e+00
  2.758003e+01    9.358200e-01
  2.769116e+01    9.160618e-01
  2.780229e+01    9.187903e-01
  2.791342e+01    8.702685e-01
  2.802454e+01    8.412151e-01
  2.813567e+01    8.659104e-01
  2.824680e+01    8.586521e-01
  2.835793e+01    8.597615e-01
  2.846906e+01    8.599365e-01
  2.858019e+01    8.496510e-01
  2.869132e+01    8.388268e-01
  2.880245e+01    8.179123e-01
  2.891358e+01    8.289561e-01
  2.902471e+01    8.439011e-01
  2.913583e+01    8.272479e-01
  2.924696e+01    8.168135e-01
  2.935809e+01    8.349676e-01
  2.946922e+01    8.293830e-01
  2.958035e+01    8.109612e-01
  2.969148e+01    7.878345e-01
  2.980261e+01    8.225815e-01
  2.991374e+01    8.017625e-01
  3.002487e+01    8.108686e-01
  3.013600e+01    7.954239e-01
  3.024712e+01    7.978248e-01
  3.035825e+01    8.047252e-01
  3.046938e+01    8.087621e-01
  3.058051e+01    7.661986e-01
  3.069164e+01    7.941859e-01
  3.080277e+01    8.024152e-01
  3.091390e+01    7.973660e-01
  3.102503e+01    7.659485e-01
  3.113616e+01    8.013635e-01
  3.124729e+01    8.043836e-01
  3.135841e+01    8.083501e-01
  3.146954e+01    8.166630e-01
  3.158067e+01    8.603909e-01
  3.169180e+01    1.024695e+00
  3.180293e+01    1.485749e+00
  3.191406e+01    2.125708e+00
  3.202519e+01    1.320798e+00
  3.213632e+01    9.106488e-01
  3.224745e+01    8.302845e-01
  3.235858e+01    8.166482e-01
  3.246970e+01    7.790903e-01
  3.254908e+01    7.686670e-01