Folder: myspot_2024_07/XRD/Reaction conditions (part 78)

File: 2024-07-27_003_Ru-CGO-ex_Reaction_dwell_000023_data_000189.dat
# == pyFAI calibration ==
# Distance Sample to Detector: 0.4 m
# PONI: 9.750e-02, 1.135e-01 m
# Rotations: -0.000175 0.000000 -0.000000 rad
#
# == Fit2d calibration ==
# Distance Sample-beamCenter: 400.000 mm
# Center: x=1514.000, y=1300.000 pix
# Tilt: 0.010 deg  TiltPlanRot: 0.010 deg
#
# Detector Detector	 Spline= None	 PixelSize= 7.500e-05, 7.500e-05 m
#    Detector has a mask: False
#    Detector has a dark current: False
#    detector has a flat field: False
#
# Wavelength: 6.888e-11 m
# Mask applied: user provided
# Dark current applied: False
# Flat field applied: False
# Polarization factor: 0.99
# Normalization factor: 1.0
# --> /home/myspot/data/2024_07_Rosario/Ru-CGO-ex/2024-07-27_003_Ru-CGO-ex_Reaction_dwell_000023_data_000189.dat
#       q_nm^-1             I
  2.003187e-02    0.000000e+00
  1.311609e-01    2.854345e-02
  2.422899e-01    9.933781e-02
  3.534189e-01    4.486123e-02
  4.645479e-01    2.142572e-02
  5.756770e-01    5.411848e-02
  6.868060e-01    3.601817e-02
  7.979350e-01    1.398091e-01
  9.090640e-01    6.223285e-01
  1.020193e+00    1.318684e+00
  1.131322e+00    1.627085e+00
  1.242451e+00    2.393735e+00
  1.353580e+00    2.737925e+00
  1.464709e+00    2.979916e+00
  1.575838e+00    3.087618e+00
  1.686967e+00    3.036068e+00
  1.798096e+00    3.163620e+00
  1.909225e+00    3.154774e+00
  2.020354e+00    2.856853e+00
  2.131483e+00    3.016281e+00
  2.242612e+00    2.955271e+00
  2.353741e+00    3.195164e+00
  2.464870e+00    3.084946e+00
  2.575999e+00    3.139730e+00
  2.687128e+00    3.186982e+00
  2.798257e+00    3.181414e+00
  2.909386e+00    3.213507e+00
  3.020515e+00    3.234310e+00
  3.131644e+00    3.381767e+00
  3.242773e+00    3.392531e+00
  3.353902e+00    3.362172e+00
  3.465031e+00    3.396361e+00
  3.576160e+00    3.376172e+00
  3.687289e+00    3.492033e+00
  3.798418e+00    3.391112e+00
  3.909547e+00    3.455419e+00
  4.020676e+00    3.508548e+00
  4.131806e+00    3.463705e+00
  4.242935e+00    3.483845e+00
  4.354064e+00    3.536109e+00
  4.465193e+00    3.431536e+00
  4.576322e+00    3.535190e+00
  4.687451e+00    3.634130e+00
  4.798580e+00    3.515420e+00
  4.909709e+00    3.563829e+00
  5.020838e+00    3.649505e+00
  5.131967e+00    3.562212e+00
  5.243096e+00    3.597483e+00
  5.354225e+00    3.604269e+00
  5.465354e+00    3.500648e+00
  5.576483e+00    3.599792e+00
  5.687612e+00    3.558990e+00
  5.798741e+00    3.560709e+00
  5.909870e+00    3.488750e+00
  6.020999e+00    3.452459e+00
  6.132128e+00    3.504890e+00
  6.243257e+00    3.542304e+00
  6.354386e+00    3.493721e+00
  6.465515e+00    3.505371e+00
  6.576644e+00    3.532815e+00
  6.687773e+00    3.437158e+00
  6.798902e+00    3.442012e+00
  6.910031e+00    3.525781e+00
  7.021160e+00    3.560794e+00
  7.132289e+00    3.529645e+00
  7.243418e+00    3.466726e+00
  7.354547e+00    3.451860e+00
  7.465676e+00    3.397506e+00
  7.576805e+00    3.411070e+00
  7.687934e+00    3.433977e+00
  7.799063e+00    3.399433e+00
  7.910192e+00    3.355222e+00
  8.021321e+00    3.362578e+00
  8.132450e+00    3.334723e+00
  8.243579e+00    3.427441e+00
  8.354708e+00    3.335460e+00
  8.465837e+00    3.324807e+00
  8.576966e+00    3.267787e+00
  8.688095e+00    3.230152e+00
  8.799224e+00    3.252558e+00
  8.910353e+00    3.224169e+00
  9.021482e+00    3.195103e+00
  9.132611e+00    3.183637e+00
  9.243740e+00    3.197082e+00
  9.354869e+00    3.170886e+00
  9.465998e+00    3.164747e+00
  9.577127e+00    3.184077e+00
  9.688256e+00    3.132507e+00
  9.799385e+00    3.120913e+00
  9.910514e+00    3.096146e+00
  1.002164e+01    3.002695e+00
  1.013277e+01    3.032791e+00
  1.024390e+01    3.024160e+00
  1.035503e+01    2.968190e+00
  1.046616e+01    2.959884e+00
  1.057729e+01    2.989622e+00
  1.068842e+01    2.861103e+00
  1.079955e+01    2.845351e+00
  1.091068e+01    2.832949e+00
  1.102180e+01    2.875122e+00
  1.113293e+01    2.861034e+00
  1.124406e+01    2.830047e+00
  1.135519e+01    2.740236e+00
  1.146632e+01    2.825480e+00
  1.157745e+01    2.784331e+00
  1.168858e+01    2.643889e+00
  1.179971e+01    2.701971e+00
  1.191084e+01    2.716212e+00
  1.202197e+01    2.700127e+00
  1.213309e+01    2.623988e+00
  1.224422e+01    2.632089e+00
  1.235535e+01    2.648066e+00
  1.246648e+01    2.695463e+00
  1.257761e+01    2.637677e+00
  1.268874e+01    2.739212e+00
  1.279987e+01    2.969826e+00
  1.291100e+01    3.637932e+00
  1.302213e+01    6.635237e+00
  1.313326e+01    1.452855e+01
  1.324438e+01    1.055147e+01
  1.335551e+01    4.297062e+00
  1.346664e+01    3.069192e+00
  1.357777e+01    2.709141e+00
  1.368890e+01    2.518669e+00
  1.380003e+01    2.450696e+00
  1.391116e+01    2.350439e+00
  1.402229e+01    2.345584e+00
  1.413342e+01    2.266387e+00
  1.424455e+01    2.234637e+00
  1.435568e+01    2.245432e+00
  1.446680e+01    2.184021e+00
  1.457793e+01    2.176359e+00
  1.468906e+01    2.136891e+00
  1.480019e+01    2.193940e+00
  1.491132e+01    2.196321e+00
  1.502245e+01    2.429084e+00
  1.513358e+01    3.712340e+00
  1.524471e+01    5.573578e+00
  1.535584e+01    3.674879e+00
  1.546697e+01    2.380099e+00
  1.557809e+01    2.073171e+00
  1.568922e+01    1.960858e+00
  1.580035e+01    1.886387e+00
  1.591148e+01    1.864350e+00
  1.602261e+01    1.837809e+00
  1.613374e+01    1.813432e+00
  1.624487e+01    1.765459e+00
  1.635600e+01    1.793952e+00
  1.646713e+01    1.737336e+00
  1.657826e+01    1.705356e+00
  1.668938e+01    1.679824e+00
  1.680051e+01    1.651460e+00
  1.691164e+01    1.673364e+00
  1.702277e+01    1.627875e+00
  1.713390e+01    1.596133e+00
  1.724503e+01    1.586791e+00
  1.735616e+01    1.561512e+00
  1.746729e+01    1.561116e+00
  1.757842e+01    1.529834e+00
  1.768955e+01    1.511342e+00
  1.780067e+01    1.480519e+00
  1.791180e+01    1.470965e+00
  1.802293e+01    1.480169e+00
  1.813406e+01    1.478553e+00
  1.824519e+01    1.476310e+00
  1.835632e+01    1.458123e+00
  1.846745e+01    1.463858e+00
  1.857858e+01    1.433337e+00
  1.868971e+01    1.415848e+00
  1.880084e+01    1.392596e+00
  1.891196e+01    1.360792e+00
  1.902309e+01    1.385054e+00
  1.913422e+01    1.288685e+00
  1.924535e+01    1.348418e+00
  1.935648e+01    1.346039e+00
  1.946761e+01    1.337040e+00
  1.957874e+01    1.305201e+00
  1.968987e+01    1.321129e+00
  1.980100e+01    1.280686e+00
  1.991213e+01    1.275683e+00
  2.002325e+01    1.281226e+00
  2.013438e+01    1.215614e+00
  2.024551e+01    1.232521e+00
  2.035664e+01    1.247063e+00
  2.046777e+01    1.218781e+00
  2.057890e+01    1.215953e+00
  2.069003e+01    1.197239e+00
  2.080116e+01    1.215995e+00
  2.091229e+01    1.199301e+00
  2.102342e+01    1.203108e+00
  2.113455e+01    1.212875e+00
  2.124567e+01    1.228135e+00
  2.135680e+01    1.270409e+00
  2.146793e+01    1.322894e+00
  2.157906e+01    1.605948e+00
  2.169019e+01    2.463130e+00
  2.180132e+01    5.743285e+00
  2.191245e+01    8.624692e+00
  2.202358e+01    3.590103e+00
  2.213471e+01    1.841581e+00
  2.224584e+01    1.378799e+00
  2.235696e+01    1.234613e+00
  2.246809e+01    1.144428e+00
  2.257922e+01    1.084368e+00
  2.269035e+01    1.053678e+00
  2.280148e+01    1.033983e+00
  2.291261e+01    1.036812e+00
  2.302374e+01    9.976247e-01
  2.313487e+01    1.005320e+00
  2.324600e+01    9.842601e-01
  2.335713e+01    9.531325e-01
  2.346825e+01    9.325641e-01
  2.357938e+01    9.524311e-01
  2.369051e+01    9.471800e-01
  2.380164e+01    9.025798e-01
  2.391277e+01    8.858266e-01
  2.402390e+01    8.659925e-01
  2.413503e+01    8.635783e-01
  2.424616e+01    8.539338e-01
  2.435729e+01    8.782803e-01
  2.446842e+01    8.857420e-01
  2.457954e+01    8.745369e-01
  2.469067e+01    8.877103e-01
  2.480180e+01    8.855042e-01
  2.491293e+01    8.915351e-01
  2.502406e+01    8.885382e-01
  2.513519e+01    9.163735e-01
  2.524632e+01    9.150758e-01
  2.535745e+01    9.534834e-01
  2.546858e+01    1.017218e+00
  2.557971e+01    1.147302e+00
  2.569083e+01    1.492482e+00
  2.580196e+01    2.767249e+00
  2.591309e+01    6.216481e+00
  2.602422e+01    5.177656e+00
  2.613535e+01    2.104985e+00
  2.624648e+01    1.335333e+00
  2.635761e+01    1.103183e+00
  2.646874e+01    9.968082e-01
  2.657987e+01    9.642793e-01
  2.669100e+01    9.655404e-01
  2.680212e+01    9.528176e-01
  2.691325e+01    9.797516e-01
  2.702438e+01    1.119826e+00
  2.713551e+01    1.723383e+00
  2.724664e+01    2.040604e+00
  2.735777e+01    1.268074e+00
  2.746890e+01    1.023732e+00
  2.758003e+01    9.234564e-01
  2.769116e+01    8.799900e-01
  2.780229e+01    8.658528e-01
  2.791342e+01    8.579719e-01
  2.802454e+01    8.785258e-01
  2.813567e+01    8.396424e-01
  2.824680e+01    8.395432e-01
  2.835793e+01    8.337769e-01
  2.846906e+01    8.262000e-01
  2.858019e+01    8.027562e-01
  2.869132e+01    8.192526e-01
  2.880245e+01    8.073191e-01
  2.891358e+01    8.034428e-01
  2.902471e+01    8.037865e-01
  2.913583e+01    8.232363e-01
  2.924696e+01    7.919146e-01
  2.935809e+01    7.780295e-01
  2.946922e+01    7.980532e-01
  2.958035e+01    8.135195e-01
  2.969148e+01    7.775837e-01
  2.980261e+01    7.507291e-01
  2.991374e+01    7.719964e-01
  3.002487e+01    8.054767e-01
  3.013600e+01    7.841516e-01
  3.024712e+01    7.593375e-01
  3.035825e+01    7.625805e-01
  3.046938e+01    7.693204e-01
  3.058051e+01    7.706655e-01
  3.069164e+01    7.982768e-01
  3.080277e+01    7.744645e-01
  3.091390e+01    7.765129e-01
  3.102503e+01    7.543372e-01
  3.113616e+01    7.833309e-01
  3.124729e+01    7.840195e-01
  3.135841e+01    7.840458e-01
  3.146954e+01    8.157848e-01
  3.158067e+01    8.640876e-01
  3.169180e+01    9.787686e-01
  3.180293e+01    1.439821e+00
  3.191406e+01    2.016977e+00
  3.202519e+01    1.302604e+00
  3.213632e+01    9.369498e-01
  3.224745e+01    8.270178e-01
  3.235858e+01    7.903315e-01
  3.246970e+01    7.650712e-01
  3.254908e+01    7.601722e-01

File: 2024-07-27_003_Ru-CGO-ex_Reaction_dwell_000023_data_000190.dat
# == pyFAI calibration ==
# Distance Sample to Detector: 0.4 m
# PONI: 9.750e-02, 1.135e-01 m
# Rotations: -0.000175 0.000000 -0.000000 rad
#
# == Fit2d calibration ==
# Distance Sample-beamCenter: 400.000 mm
# Center: x=1514.000, y=1300.000 pix
# Tilt: 0.010 deg  TiltPlanRot: 0.010 deg
#
# Detector Detector	 Spline= None	 PixelSize= 7.500e-05, 7.500e-05 m
#    Detector has a mask: False
#    Detector has a dark current: False
#    detector has a flat field: False
#
# Wavelength: 6.888e-11 m
# Mask applied: user provided
# Dark current applied: False
# Flat field applied: False
# Polarization factor: 0.99
# Normalization factor: 1.0
# --> /home/myspot/data/2024_07_Rosario/Ru-CGO-ex/2024-07-27_003_Ru-CGO-ex_Reaction_dwell_000023_data_000190.dat
#       q_nm^-1             I
  2.003187e-02    0.000000e+00
  1.311609e-01    0.000000e+00
  2.422899e-01    4.108210e-02
  3.534189e-01    9.015585e-02
  4.645479e-01    2.050222e-02
  5.756770e-01    3.093250e-02
  6.868060e-01    4.489520e-02
  7.979350e-01    1.966083e-01
  9.090640e-01    7.089508e-01
  1.020193e+00    1.235058e+00
  1.131322e+00    1.664811e+00
  1.242451e+00    2.246797e+00
  1.353580e+00    2.711183e+00
  1.464709e+00    2.889504e+00
  1.575838e+00    3.008198e+00
  1.686967e+00    3.065318e+00
  1.798096e+00    3.080276e+00
  1.909225e+00    3.070656e+00
  2.020354e+00    3.043535e+00
  2.131483e+00    3.051243e+00
  2.242612e+00    3.107059e+00
  2.353741e+00    3.133097e+00
  2.464870e+00    3.180461e+00
  2.575999e+00    3.207916e+00
  2.687128e+00    3.183100e+00
  2.798257e+00    3.150557e+00
  2.909386e+00    3.285489e+00
  3.020515e+00    3.337307e+00
  3.131644e+00    3.314793e+00
  3.242773e+00    3.396330e+00
  3.353902e+00    3.374091e+00
  3.465031e+00    3.432786e+00
  3.576160e+00    3.243528e+00
  3.687289e+00    3.513696e+00
  3.798418e+00    3.518632e+00
  3.909547e+00    3.449392e+00
  4.020676e+00    3.389271e+00
  4.131806e+00    3.565176e+00
  4.242935e+00    3.437281e+00
  4.354064e+00    3.524830e+00
  4.465193e+00    3.546385e+00
  4.576322e+00    3.521934e+00
  4.687451e+00    3.532423e+00
  4.798580e+00    3.616628e+00
  4.909709e+00    3.568695e+00
  5.020838e+00    3.537060e+00
  5.131967e+00    3.632549e+00
  5.243096e+00    3.612257e+00
  5.354225e+00    3.524193e+00
  5.465354e+00    3.475566e+00
  5.576483e+00    3.487586e+00
  5.687612e+00    3.518999e+00
  5.798741e+00    3.539596e+00
  5.909870e+00    3.415416e+00
  6.020999e+00    3.424489e+00
  6.132128e+00    3.577704e+00
  6.243257e+00    3.514834e+00
  6.354386e+00    3.573611e+00
  6.465515e+00    3.470747e+00
  6.576644e+00    3.512091e+00
  6.687773e+00    3.413481e+00
  6.798902e+00    3.414753e+00
  6.910031e+00    3.458235e+00
  7.021160e+00    3.446955e+00
  7.132289e+00    3.482225e+00
  7.243418e+00    3.384686e+00
  7.354547e+00    3.466493e+00
  7.465676e+00    3.372559e+00
  7.576805e+00    3.429852e+00
  7.687934e+00    3.346848e+00
  7.799063e+00    3.401249e+00
  7.910192e+00    3.276839e+00
  8.021321e+00    3.373724e+00
  8.132450e+00    3.395130e+00
  8.243579e+00    3.447667e+00
  8.354708e+00    3.276682e+00
  8.465837e+00    3.222939e+00
  8.576966e+00    3.228564e+00
  8.688095e+00    3.333210e+00
  8.799224e+00    3.292573e+00
  8.910353e+00    3.218983e+00
  9.021482e+00    3.208923e+00
  9.132611e+00    3.201313e+00
  9.243740e+00    3.200001e+00
  9.354869e+00    3.125514e+00
  9.465998e+00    3.169659e+00
  9.577127e+00    3.170910e+00
  9.688256e+00    3.169006e+00
  9.799385e+00    3.078414e+00
  9.910514e+00    3.065239e+00
  1.002164e+01    3.015917e+00
  1.013277e+01    3.035776e+00
  1.024390e+01    3.016384e+00
  1.035503e+01    2.982581e+00
  1.046616e+01    2.973621e+00
  1.057729e+01    2.927776e+00
  1.068842e+01    2.904005e+00
  1.079955e+01    2.927482e+00
  1.091068e+01    2.868992e+00
  1.102180e+01    2.814570e+00
  1.113293e+01    2.785963e+00
  1.124406e+01    2.840158e+00
  1.135519e+01    2.743290e+00
  1.146632e+01    2.765415e+00
  1.157745e+01    2.796335e+00
  1.168858e+01    2.690161e+00
  1.179971e+01    2.658791e+00
  1.191084e+01    2.663402e+00
  1.202197e+01    2.674957e+00
  1.213309e+01    2.666098e+00
  1.224422e+01    2.658391e+00
  1.235535e+01    2.665907e+00
  1.246648e+01    2.672318e+00
  1.257761e+01    2.634296e+00
  1.268874e+01    2.744994e+00
  1.279987e+01    2.938537e+00
  1.291100e+01    3.563370e+00
  1.302213e+01    6.590820e+00
  1.313326e+01    1.470708e+01
  1.324438e+01    1.048882e+01
  1.335551e+01    4.384630e+00
  1.346664e+01    3.106796e+00
  1.357777e+01    2.676052e+00
  1.368890e+01    2.502939e+00
  1.380003e+01    2.452183e+00
  1.391116e+01    2.383806e+00
  1.402229e+01    2.315012e+00
  1.413342e+01    2.277370e+00
  1.424455e+01    2.250466e+00
  1.435568e+01    2.228637e+00
  1.446680e+01    2.209099e+00
  1.457793e+01    2.153302e+00
  1.468906e+01    2.149772e+00
  1.480019e+01    2.193093e+00
  1.491132e+01    2.219761e+00
  1.502245e+01    2.454034e+00
  1.513358e+01    3.710620e+00
  1.524471e+01    5.620896e+00
  1.535584e+01    3.723716e+00
  1.546697e+01    2.352542e+00
  1.557809e+01    2.108150e+00
  1.568922e+01    1.963133e+00
  1.580035e+01    1.914324e+00
  1.591148e+01    1.847313e+00
  1.602261e+01    1.851130e+00
  1.613374e+01    1.771648e+00
  1.624487e+01    1.748724e+00
  1.635600e+01    1.781853e+00
  1.646713e+01    1.727829e+00
  1.657826e+01    1.725369e+00
  1.668938e+01    1.722750e+00
  1.680051e+01    1.647756e+00
  1.691164e+01    1.674867e+00
  1.702277e+01    1.625560e+00
  1.713390e+01    1.589678e+00
  1.724503e+01    1.598464e+00
  1.735616e+01    1.592831e+00
  1.746729e+01    1.565009e+00
  1.757842e+01    1.547816e+00
  1.768955e+01    1.543915e+00
  1.780067e+01    1.478118e+00
  1.791180e+01    1.485356e+00
  1.802293e+01    1.467129e+00
  1.813406e+01    1.472463e+00
  1.824519e+01    1.466105e+00
  1.835632e+01    1.445270e+00
  1.846745e+01    1.445226e+00
  1.857858e+01    1.393905e+00
  1.868971e+01    1.414238e+00
  1.880084e+01    1.390615e+00
  1.891196e+01    1.360716e+00
  1.902309e+01    1.348803e+00
  1.913422e+01    1.343227e+00
  1.924535e+01    1.318928e+00
  1.935648e+01    1.334928e+00
  1.946761e+01    1.296206e+00
  1.957874e+01    1.312185e+00
  1.968987e+01    1.283080e+00
  1.980100e+01    1.263281e+00
  1.991213e+01    1.282131e+00
  2.002325e+01    1.240544e+00
  2.013438e+01    1.213686e+00
  2.024551e+01    1.231282e+00
  2.035664e+01    1.239470e+00
  2.046777e+01    1.218889e+00
  2.057890e+01    1.238825e+00
  2.069003e+01    1.198508e+00
  2.080116e+01    1.185993e+00
  2.091229e+01    1.180012e+00
  2.102342e+01    1.189992e+00
  2.113455e+01    1.199656e+00
  2.124567e+01    1.239413e+00
  2.135680e+01    1.233479e+00
  2.146793e+01    1.347273e+00
  2.157906e+01    1.563188e+00
  2.169019e+01    2.437334e+00
  2.180132e+01    5.718698e+00
  2.191245e+01    8.604168e+00
  2.202358e+01    3.564221e+00
  2.213471e+01    1.827297e+00
  2.224584e+01    1.376651e+00
  2.235696e+01    1.211705e+00
  2.246809e+01    1.143685e+00
  2.257922e+01    1.112240e+00
  2.269035e+01    1.067922e+00
  2.280148e+01    1.024430e+00
  2.291261e+01    1.016513e+00
  2.302374e+01    9.779469e-01
  2.313487e+01    9.914303e-01
  2.324600e+01    9.620150e-01
  2.335713e+01    9.565727e-01
  2.346825e+01    9.687469e-01
  2.357938e+01    9.503905e-01
  2.369051e+01    9.187805e-01
  2.380164e+01    9.219306e-01
  2.391277e+01    9.051206e-01
  2.402390e+01    8.767560e-01
  2.413503e+01    8.866380e-01
  2.424616e+01    8.579938e-01
  2.435729e+01    8.834978e-01
  2.446842e+01    8.777058e-01
  2.457954e+01    8.743144e-01
  2.469067e+01    9.031988e-01
  2.480180e+01    8.680508e-01
  2.491293e+01    8.539667e-01
  2.502406e+01    8.682597e-01
  2.513519e+01    8.896406e-01
  2.524632e+01    9.023389e-01
  2.535745e+01    9.370438e-01
  2.546858e+01    9.950895e-01
  2.557971e+01    1.127517e+00
  2.569083e+01    1.496676e+00
  2.580196e+01    2.756438e+00
  2.591309e+01    6.198042e+00
  2.602422e+01    5.141292e+00
  2.613535e+01    2.105495e+00
  2.624648e+01    1.307347e+00
  2.635761e+01    1.087101e+00
  2.646874e+01    1.012966e+00
  2.657987e+01    9.745414e-01
  2.669100e+01    9.677064e-01
  2.680212e+01    9.735562e-01
  2.691325e+01    9.893828e-01
  2.702438e+01    1.127507e+00
  2.713551e+01    1.677750e+00
  2.724664e+01    2.058437e+00
  2.735777e+01    1.261698e+00
  2.746890e+01    1.019890e+00
  2.758003e+01    9.415416e-01
  2.769116e+01    8.981389e-01
  2.780229e+01    8.686210e-01
  2.791342e+01    8.726874e-01
  2.802454e+01    8.532179e-01
  2.813567e+01    8.217136e-01
  2.824680e+01    8.353819e-01
  2.835793e+01    8.109028e-01
  2.846906e+01    8.386008e-01
  2.858019e+01    8.178442e-01
  2.869132e+01    8.199989e-01
  2.880245e+01    7.991854e-01
  2.891358e+01    8.006049e-01
  2.902471e+01    8.049676e-01
  2.913583e+01    7.945380e-01
  2.924696e+01    7.880740e-01
  2.935809e+01    7.906206e-01
  2.946922e+01    7.645687e-01
  2.958035e+01    7.898921e-01
  2.969148e+01    7.805860e-01
  2.980261e+01    7.823327e-01
  2.991374e+01    7.924221e-01
  3.002487e+01    7.770417e-01
  3.013600e+01    7.877588e-01
  3.024712e+01    7.666072e-01
  3.035825e+01    7.751672e-01
  3.046938e+01    7.631429e-01
  3.058051e+01    7.727222e-01
  3.069164e+01    7.640448e-01
  3.080277e+01    7.640011e-01
  3.091390e+01    7.570575e-01
  3.102503e+01    7.827327e-01
  3.113616e+01    7.815378e-01
  3.124729e+01    7.761101e-01
  3.135841e+01    8.132996e-01
  3.146954e+01    8.019120e-01
  3.158067e+01    8.278583e-01
  3.169180e+01    9.671919e-01
  3.180293e+01    1.436936e+00
  3.191406e+01    2.056407e+00
  3.202519e+01    1.277091e+00
  3.213632e+01    9.039654e-01
  3.224745e+01    8.241007e-01
  3.235858e+01    7.874341e-01
  3.246970e+01    7.656978e-01
  3.254908e+01    7.586347e-01