Folder: myspot_2024_07/XRD/Reaction conditions (part 48)

File: 2024-07-27_003_Ru-CGO-ex_Reaction_dwell_000023_data_000124.dat
# == pyFAI calibration ==
# Distance Sample to Detector: 0.4 m
# PONI: 9.750e-02, 1.135e-01 m
# Rotations: -0.000175 0.000000 -0.000000 rad
#
# == Fit2d calibration ==
# Distance Sample-beamCenter: 400.000 mm
# Center: x=1514.000, y=1300.000 pix
# Tilt: 0.010 deg  TiltPlanRot: 0.010 deg
#
# Detector Detector	 Spline= None	 PixelSize= 7.500e-05, 7.500e-05 m
#    Detector has a mask: False
#    Detector has a dark current: False
#    detector has a flat field: False
#
# Wavelength: 6.888e-11 m
# Mask applied: user provided
# Dark current applied: False
# Flat field applied: False
# Polarization factor: 0.99
# Normalization factor: 1.0
# --> /home/myspot/data/2024_07_Rosario/Ru-CGO-ex/2024-07-27_003_Ru-CGO-ex_Reaction_dwell_000023_data_000124.dat
#       q_nm^-1             I
  2.003187e-02    0.000000e+00
  1.311609e-01    6.996327e-02
  2.422899e-01    6.445657e-02
  3.534189e-01    5.344653e-02
  4.645479e-01    4.525321e-02
  5.756770e-01    6.892594e-02
  6.868060e-01    3.206662e-02
  7.979350e-01    1.691518e-01
  9.090640e-01    7.165275e-01
  1.020193e+00    1.245279e+00
  1.131322e+00    1.538196e+00
  1.242451e+00    2.363353e+00
  1.353580e+00    2.664551e+00
  1.464709e+00    3.102147e+00
  1.575838e+00    3.231359e+00
  1.686967e+00    3.124580e+00
  1.798096e+00    3.094131e+00
  1.909225e+00    2.935966e+00
  2.020354e+00    3.057537e+00
  2.131483e+00    3.076496e+00
  2.242612e+00    3.087617e+00
  2.353741e+00    3.133611e+00
  2.464870e+00    3.134046e+00
  2.575999e+00    3.169008e+00
  2.687128e+00    3.266759e+00
  2.798257e+00    3.239030e+00
  2.909386e+00    3.272784e+00
  3.020515e+00    3.391455e+00
  3.131644e+00    3.283392e+00
  3.242773e+00    3.402303e+00
  3.353902e+00    3.414325e+00
  3.465031e+00    3.504545e+00
  3.576160e+00    3.517450e+00
  3.687289e+00    3.458981e+00
  3.798418e+00    3.495578e+00
  3.909547e+00    3.485068e+00
  4.020676e+00    3.421223e+00
  4.131806e+00    3.539142e+00
  4.242935e+00    3.563615e+00
  4.354064e+00    3.562140e+00
  4.465193e+00    3.484880e+00
  4.576322e+00    3.662822e+00
  4.687451e+00    3.548768e+00
  4.798580e+00    3.631630e+00
  4.909709e+00    3.635158e+00
  5.020838e+00    3.628330e+00
  5.131967e+00    3.694019e+00
  5.243096e+00    3.635572e+00
  5.354225e+00    3.727595e+00
  5.465354e+00    3.582441e+00
  5.576483e+00    3.699701e+00
  5.687612e+00    3.672699e+00
  5.798741e+00    3.525328e+00
  5.909870e+00    3.494116e+00
  6.020999e+00    3.465689e+00
  6.132128e+00    3.722911e+00
  6.243257e+00    3.647692e+00
  6.354386e+00    3.499355e+00
  6.465515e+00    3.554010e+00
  6.576644e+00    3.525168e+00
  6.687773e+00    3.594899e+00
  6.798902e+00    3.533644e+00
  6.910031e+00    3.618156e+00
  7.021160e+00    3.517243e+00
  7.132289e+00    3.490204e+00
  7.243418e+00    3.546042e+00
  7.354547e+00    3.575634e+00
  7.465676e+00    3.442714e+00
  7.576805e+00    3.419239e+00
  7.687934e+00    3.420136e+00
  7.799063e+00    3.474692e+00
  7.910192e+00    3.379029e+00
  8.021321e+00    3.307469e+00
  8.132450e+00    3.434811e+00
  8.243579e+00    3.440295e+00
  8.354708e+00    3.340122e+00
  8.465837e+00    3.339795e+00
  8.576966e+00    3.393041e+00
  8.688095e+00    3.329560e+00
  8.799224e+00    3.370077e+00
  8.910353e+00    3.313635e+00
  9.021482e+00    3.336092e+00
  9.132611e+00    3.301411e+00
  9.243740e+00    3.262826e+00
  9.354869e+00    3.249640e+00
  9.465998e+00    3.221594e+00
  9.577127e+00    3.260691e+00
  9.688256e+00    3.277518e+00
  9.799385e+00    3.197470e+00
  9.910514e+00    3.111784e+00
  1.002164e+01    3.119365e+00
  1.013277e+01    3.055334e+00
  1.024390e+01    3.028900e+00
  1.035503e+01    3.075220e+00
  1.046616e+01    2.973143e+00
  1.057729e+01    3.011149e+00
  1.068842e+01    2.974863e+00
  1.079955e+01    2.870294e+00
  1.091068e+01    2.937296e+00
  1.102180e+01    2.929493e+00
  1.113293e+01    2.875595e+00
  1.124406e+01    2.854263e+00
  1.135519e+01    2.883286e+00
  1.146632e+01    2.776000e+00
  1.157745e+01    2.773655e+00
  1.168858e+01    2.809935e+00
  1.179971e+01    2.764087e+00
  1.191084e+01    2.722291e+00
  1.202197e+01    2.672167e+00
  1.213309e+01    2.773382e+00
  1.224422e+01    2.661429e+00
  1.235535e+01    2.668055e+00
  1.246648e+01    2.700676e+00
  1.257761e+01    2.737223e+00
  1.268874e+01    2.818617e+00
  1.279987e+01    3.056979e+00
  1.291100e+01    3.695293e+00
  1.302213e+01    6.718244e+00
  1.313326e+01    1.481874e+01
  1.324438e+01    1.060542e+01
  1.335551e+01    4.402079e+00
  1.346664e+01    3.172063e+00
  1.357777e+01    2.724198e+00
  1.368890e+01    2.552662e+00
  1.380003e+01    2.465762e+00
  1.391116e+01    2.462185e+00
  1.402229e+01    2.387911e+00
  1.413342e+01    2.316295e+00
  1.424455e+01    2.292176e+00
  1.435568e+01    2.290165e+00
  1.446680e+01    2.238118e+00
  1.457793e+01    2.276797e+00
  1.468906e+01    2.204134e+00
  1.480019e+01    2.234275e+00
  1.491132e+01    2.256090e+00
  1.502245e+01    2.566565e+00
  1.513358e+01    3.825303e+00
  1.524471e+01    5.659548e+00
  1.535584e+01    3.769779e+00
  1.546697e+01    2.403869e+00
  1.557809e+01    2.133342e+00
  1.568922e+01    1.999277e+00
  1.580035e+01    1.949677e+00
  1.591148e+01    1.927297e+00
  1.602261e+01    1.848651e+00
  1.613374e+01    1.842883e+00
  1.624487e+01    1.794950e+00
  1.635600e+01    1.784514e+00
  1.646713e+01    1.787569e+00
  1.657826e+01    1.727918e+00
  1.668938e+01    1.683357e+00
  1.680051e+01    1.673934e+00
  1.691164e+01    1.688533e+00
  1.702277e+01    1.659822e+00
  1.713390e+01    1.665664e+00
  1.724503e+01    1.615242e+00
  1.735616e+01    1.598654e+00
  1.746729e+01    1.625633e+00
  1.757842e+01    1.586881e+00
  1.768955e+01    1.614071e+00
  1.780067e+01    1.587582e+00
  1.791180e+01    1.534102e+00
  1.802293e+01    1.495648e+00
  1.813406e+01    1.488101e+00
  1.824519e+01    1.508572e+00
  1.835632e+01    1.474651e+00
  1.846745e+01    1.467581e+00
  1.857858e+01    1.444668e+00
  1.868971e+01    1.429755e+00
  1.880084e+01    1.386829e+00
  1.891196e+01    1.398100e+00
  1.902309e+01    1.368599e+00
  1.913422e+01    1.392349e+00
  1.924535e+01    1.334241e+00
  1.935648e+01    1.346988e+00
  1.946761e+01    1.308480e+00
  1.957874e+01    1.334772e+00
  1.968987e+01    1.325760e+00
  1.980100e+01    1.294759e+00
  1.991213e+01    1.275360e+00
  2.002325e+01    1.315382e+00
  2.013438e+01    1.248729e+00
  2.024551e+01    1.253270e+00
  2.035664e+01    1.280990e+00
  2.046777e+01    1.259376e+00
  2.057890e+01    1.244392e+00
  2.069003e+01    1.247246e+00
  2.080116e+01    1.235102e+00
  2.091229e+01    1.221052e+00
  2.102342e+01    1.232789e+00
  2.113455e+01    1.229782e+00
  2.124567e+01    1.242602e+00
  2.135680e+01    1.280325e+00
  2.146793e+01    1.370826e+00
  2.157906e+01    1.611373e+00
  2.169019e+01    2.505027e+00
  2.180132e+01    5.828694e+00
  2.191245e+01    8.757133e+00
  2.202358e+01    3.582925e+00
  2.213471e+01    1.843299e+00
  2.224584e+01    1.421764e+00
  2.235696e+01    1.232833e+00
  2.246809e+01    1.158744e+00
  2.257922e+01    1.105484e+00
  2.269035e+01    1.057616e+00
  2.280148e+01    1.044315e+00
  2.291261e+01    1.046488e+00
  2.302374e+01    1.033073e+00
  2.313487e+01    9.963704e-01
  2.324600e+01    9.858176e-01
  2.335713e+01    9.614781e-01
  2.346825e+01    9.442656e-01
  2.357938e+01    9.642343e-01
  2.369051e+01    9.383774e-01
  2.380164e+01    9.154528e-01
  2.391277e+01    9.273604e-01
  2.402390e+01    8.981832e-01
  2.413503e+01    8.851561e-01
  2.424616e+01    8.562069e-01
  2.435729e+01    8.796207e-01
  2.446842e+01    8.804549e-01
  2.457954e+01    8.984146e-01
  2.469067e+01    9.000732e-01
  2.480180e+01    8.813642e-01
  2.491293e+01    8.823161e-01
  2.502406e+01    9.090589e-01
  2.513519e+01    9.022223e-01
  2.524632e+01    9.449027e-01
  2.535745e+01    9.824185e-01
  2.546858e+01    1.026494e+00
  2.557971e+01    1.155759e+00
  2.569083e+01    1.488527e+00
  2.580196e+01    2.827795e+00
  2.591309e+01    6.335143e+00
  2.602422e+01    5.251226e+00
  2.613535e+01    2.128530e+00
  2.624648e+01    1.354489e+00
  2.635761e+01    1.107321e+00
  2.646874e+01    1.040722e+00
  2.657987e+01    9.921342e-01
  2.669100e+01    1.000577e+00
  2.680212e+01    9.482393e-01
  2.691325e+01    1.012746e+00
  2.702438e+01    1.138916e+00
  2.713551e+01    1.701685e+00
  2.724664e+01    2.051473e+00
  2.735777e+01    1.291509e+00
  2.746890e+01    1.051422e+00
  2.758003e+01    9.382364e-01
  2.769116e+01    9.007048e-01
  2.780229e+01    8.992593e-01
  2.791342e+01    8.804110e-01
  2.802454e+01    8.672010e-01
  2.813567e+01    8.628601e-01
  2.824680e+01    8.500753e-01
  2.835793e+01    8.317729e-01
  2.846906e+01    8.349371e-01
  2.858019e+01    8.361641e-01
  2.869132e+01    8.284702e-01
  2.880245e+01    8.024764e-01
  2.891358e+01    8.356918e-01
  2.902471e+01    8.044308e-01
  2.913583e+01    8.168153e-01
  2.924696e+01    8.030915e-01
  2.935809e+01    8.046089e-01
  2.946922e+01    8.031306e-01
  2.958035e+01    7.979784e-01
  2.969148e+01    7.994086e-01
  2.980261e+01    7.845622e-01
  2.991374e+01    7.837709e-01
  3.002487e+01    7.781443e-01
  3.013600e+01    7.978070e-01
  3.024712e+01    7.842846e-01
  3.035825e+01    7.802800e-01
  3.046938e+01    7.889570e-01
  3.058051e+01    7.805305e-01
  3.069164e+01    7.796748e-01
  3.080277e+01    7.880065e-01
  3.091390e+01    7.843243e-01
  3.102503e+01    7.692457e-01
  3.113616e+01    8.060952e-01
  3.124729e+01    7.887629e-01
  3.135841e+01    7.958585e-01
  3.146954e+01    8.247846e-01
  3.158067e+01    8.746942e-01
  3.169180e+01    9.892300e-01
  3.180293e+01    1.416560e+00
  3.191406e+01    2.068285e+00
  3.202519e+01    1.322329e+00
  3.213632e+01    9.338514e-01
  3.224745e+01    8.332350e-01
  3.235858e+01    8.043208e-01
  3.246970e+01    7.791903e-01
  3.254908e+01    7.605835e-01

File: 2024-07-27_003_Ru-CGO-ex_Reaction_dwell_000023_data_000125.dat
# == pyFAI calibration ==
# Distance Sample to Detector: 0.4 m
# PONI: 9.750e-02, 1.135e-01 m
# Rotations: -0.000175 0.000000 -0.000000 rad
#
# == Fit2d calibration ==
# Distance Sample-beamCenter: 400.000 mm
# Center: x=1514.000, y=1300.000 pix
# Tilt: 0.010 deg  TiltPlanRot: 0.010 deg
#
# Detector Detector	 Spline= None	 PixelSize= 7.500e-05, 7.500e-05 m
#    Detector has a mask: False
#    Detector has a dark current: False
#    detector has a flat field: False
#
# Wavelength: 6.888e-11 m
# Mask applied: user provided
# Dark current applied: False
# Flat field applied: False
# Polarization factor: 0.99
# Normalization factor: 1.0
# --> /home/myspot/data/2024_07_Rosario/Ru-CGO-ex/2024-07-27_003_Ru-CGO-ex_Reaction_dwell_000023_data_000125.dat
#       q_nm^-1             I
  2.003187e-02    7.711996e-02
  1.311609e-01    1.122118e-01
  2.422899e-01    5.984955e-02
  3.534189e-01    6.166011e-02
  4.645479e-01    1.791353e-02
  5.756770e-01    4.315079e-02
  6.868060e-01    6.212528e-02
  7.979350e-01    1.543867e-01
  9.090640e-01    6.029245e-01
  1.020193e+00    1.335683e+00
  1.131322e+00    1.658967e+00
  1.242451e+00    2.410424e+00
  1.353580e+00    2.879340e+00
  1.464709e+00    2.914509e+00
  1.575838e+00    3.130825e+00
  1.686967e+00    3.167225e+00
  1.798096e+00    3.116579e+00
  1.909225e+00    2.936753e+00
  2.020354e+00    3.298305e+00
  2.131483e+00    3.110843e+00
  2.242612e+00    3.087139e+00
  2.353741e+00    3.166287e+00
  2.464870e+00    3.075732e+00
  2.575999e+00    3.255569e+00
  2.687128e+00    3.261265e+00
  2.798257e+00    3.230508e+00
  2.909386e+00    3.395453e+00
  3.020515e+00    3.242951e+00
  3.131644e+00    3.336018e+00
  3.242773e+00    3.380530e+00
  3.353902e+00    3.460310e+00
  3.465031e+00    3.344749e+00
  3.576160e+00    3.505877e+00
  3.687289e+00    3.555518e+00
  3.798418e+00    3.519924e+00
  3.909547e+00    3.551894e+00
  4.020676e+00    3.568897e+00
  4.131806e+00    3.619101e+00
  4.242935e+00    3.461238e+00
  4.354064e+00    3.552658e+00
  4.465193e+00    3.560838e+00
  4.576322e+00    3.548901e+00
  4.687451e+00    3.607944e+00
  4.798580e+00    3.616086e+00
  4.909709e+00    3.667327e+00
  5.020838e+00    3.674474e+00
  5.131967e+00    3.666044e+00
  5.243096e+00    3.619721e+00
  5.354225e+00    3.712506e+00
  5.465354e+00    3.586552e+00
  5.576483e+00    3.584235e+00
  5.687612e+00    3.592139e+00
  5.798741e+00    3.618460e+00
  5.909870e+00    3.553994e+00
  6.020999e+00    3.522566e+00
  6.132128e+00    3.566904e+00
  6.243257e+00    3.610490e+00
  6.354386e+00    3.626540e+00
  6.465515e+00    3.534036e+00
  6.576644e+00    3.654990e+00
  6.687773e+00    3.577546e+00
  6.798902e+00    3.482634e+00
  6.910031e+00    3.570892e+00
  7.021160e+00    3.509385e+00
  7.132289e+00    3.558417e+00
  7.243418e+00    3.494633e+00
  7.354547e+00    3.460043e+00
  7.465676e+00    3.454626e+00
  7.576805e+00    3.576067e+00
  7.687934e+00    3.455682e+00
  7.799063e+00    3.447711e+00
  7.910192e+00    3.419349e+00
  8.021321e+00    3.425115e+00
  8.132450e+00    3.424513e+00
  8.243579e+00    3.416283e+00
  8.354708e+00    3.368902e+00
  8.465837e+00    3.421223e+00
  8.576966e+00    3.357978e+00
  8.688095e+00    3.312117e+00
  8.799224e+00    3.341753e+00
  8.910353e+00    3.250964e+00
  9.021482e+00    3.274042e+00
  9.132611e+00    3.273395e+00
  9.243740e+00    3.256202e+00
  9.354869e+00    3.167300e+00
  9.465998e+00    3.220843e+00
  9.577127e+00    3.201984e+00
  9.688256e+00    3.198060e+00
  9.799385e+00    3.173962e+00
  9.910514e+00    3.104875e+00
  1.002164e+01    3.106905e+00
  1.013277e+01    3.050057e+00
  1.024390e+01    3.074504e+00
  1.035503e+01    3.101811e+00
  1.046616e+01    3.044761e+00
  1.057729e+01    3.033210e+00
  1.068842e+01    2.930788e+00
  1.079955e+01    2.902080e+00
  1.091068e+01    2.927761e+00
  1.102180e+01    2.895490e+00
  1.113293e+01    2.910193e+00
  1.124406e+01    2.852906e+00
  1.135519e+01    2.865322e+00
  1.146632e+01    2.828196e+00
  1.157745e+01    2.807835e+00
  1.168858e+01    2.754661e+00
  1.179971e+01    2.710712e+00
  1.191084e+01    2.765378e+00
  1.202197e+01    2.755970e+00
  1.213309e+01    2.697637e+00
  1.224422e+01    2.692897e+00
  1.235535e+01    2.769471e+00
  1.246648e+01    2.641962e+00
  1.257761e+01    2.674107e+00
  1.268874e+01    2.836951e+00
  1.279987e+01    3.026211e+00
  1.291100e+01    3.608056e+00
  1.302213e+01    6.698005e+00
  1.313326e+01    1.480152e+01
  1.324438e+01    1.060860e+01
  1.335551e+01    4.363747e+00
  1.346664e+01    3.104325e+00
  1.357777e+01    2.779420e+00
  1.368890e+01    2.563228e+00
  1.380003e+01    2.489316e+00
  1.391116e+01    2.414731e+00
  1.402229e+01    2.351499e+00
  1.413342e+01    2.342943e+00
  1.424455e+01    2.301808e+00
  1.435568e+01    2.299635e+00
  1.446680e+01    2.193599e+00
  1.457793e+01    2.208715e+00
  1.468906e+01    2.160547e+00
  1.480019e+01    2.209973e+00
  1.491132e+01    2.267743e+00
  1.502245e+01    2.527876e+00
  1.513358e+01    3.787736e+00
  1.524471e+01    5.761517e+00
  1.535584e+01    3.720569e+00
  1.546697e+01    2.425830e+00
  1.557809e+01    2.097018e+00
  1.568922e+01    2.013791e+00
  1.580035e+01    1.893048e+00
  1.591148e+01    1.937640e+00
  1.602261e+01    1.821236e+00
  1.613374e+01    1.863685e+00
  1.624487e+01    1.840116e+00
  1.635600e+01    1.790443e+00
  1.646713e+01    1.797096e+00
  1.657826e+01    1.737409e+00
  1.668938e+01    1.721785e+00
  1.680051e+01    1.703193e+00
  1.691164e+01    1.687191e+00
  1.702277e+01    1.678064e+00
  1.713390e+01    1.631154e+00
  1.724503e+01    1.648463e+00
  1.735616e+01    1.614908e+00
  1.746729e+01    1.594321e+00
  1.757842e+01    1.597397e+00
  1.768955e+01    1.524596e+00
  1.780067e+01    1.549774e+00
  1.791180e+01    1.553898e+00
  1.802293e+01    1.492001e+00
  1.813406e+01    1.505503e+00
  1.824519e+01    1.468066e+00
  1.835632e+01    1.456394e+00
  1.846745e+01    1.459088e+00
  1.857858e+01    1.440160e+00
  1.868971e+01    1.396931e+00
  1.880084e+01    1.410760e+00
  1.891196e+01    1.425449e+00
  1.902309e+01    1.373479e+00
  1.913422e+01    1.349764e+00
  1.924535e+01    1.355671e+00
  1.935648e+01    1.326084e+00
  1.946761e+01    1.325450e+00
  1.957874e+01    1.336345e+00
  1.968987e+01    1.330540e+00
  1.980100e+01    1.302071e+00
  1.991213e+01    1.312883e+00
  2.002325e+01    1.284672e+00
  2.013438e+01    1.280631e+00
  2.024551e+01    1.270081e+00
  2.035664e+01    1.230776e+00
  2.046777e+01    1.251207e+00
  2.057890e+01    1.223055e+00
  2.069003e+01    1.209974e+00
  2.080116e+01    1.221704e+00
  2.091229e+01    1.230301e+00
  2.102342e+01    1.236147e+00
  2.113455e+01    1.209427e+00
  2.124567e+01    1.235849e+00
  2.135680e+01    1.235466e+00
  2.146793e+01    1.397311e+00
  2.157906e+01    1.626276e+00
  2.169019e+01    2.504324e+00
  2.180132e+01    5.854219e+00
  2.191245e+01    8.636698e+00
  2.202358e+01    3.582604e+00
  2.213471e+01    1.865118e+00
  2.224584e+01    1.400450e+00
  2.235696e+01    1.243973e+00
  2.246809e+01    1.143753e+00
  2.257922e+01    1.127836e+00
  2.269035e+01    1.058517e+00
  2.280148e+01    1.058327e+00
  2.291261e+01    1.022560e+00
  2.302374e+01    1.024220e+00
  2.313487e+01    1.008164e+00
  2.324600e+01    9.818744e-01
  2.335713e+01    9.633426e-01
  2.346825e+01    9.502827e-01
  2.357938e+01    9.541519e-01
  2.369051e+01    9.305029e-01
  2.380164e+01    9.241175e-01
  2.391277e+01    9.023758e-01
  2.402390e+01    8.902382e-01
  2.413503e+01    8.673640e-01
  2.424616e+01    8.784112e-01
  2.435729e+01    8.905550e-01
  2.446842e+01    9.017990e-01
  2.457954e+01    8.959851e-01
  2.469067e+01    8.826970e-01
  2.480180e+01    8.930413e-01
  2.491293e+01    8.990388e-01
  2.502406e+01    8.967382e-01
  2.513519e+01    9.013152e-01
  2.524632e+01    9.492054e-01
  2.535745e+01    9.428172e-01
  2.546858e+01    1.008859e+00
  2.557971e+01    1.156699e+00
  2.569083e+01    1.521189e+00
  2.580196e+01    2.796318e+00
  2.591309e+01    6.269194e+00
  2.602422e+01    5.196843e+00
  2.613535e+01    2.072178e+00
  2.624648e+01    1.335261e+00
  2.635761e+01    1.092970e+00
  2.646874e+01    1.013626e+00
  2.657987e+01    9.998499e-01
  2.669100e+01    9.802875e-01
  2.680212e+01    9.641395e-01
  2.691325e+01    9.967610e-01
  2.702438e+01    1.161813e+00
  2.713551e+01    1.712062e+00
  2.724664e+01    2.045556e+00
  2.735777e+01    1.266613e+00
  2.746890e+01    1.016649e+00
  2.758003e+01    9.382668e-01
  2.769116e+01    9.085632e-01
  2.780229e+01    8.980724e-01
  2.791342e+01    8.882805e-01
  2.802454e+01    8.462197e-01
  2.813567e+01    8.609943e-01
  2.824680e+01    8.531495e-01
  2.835793e+01    8.375930e-01
  2.846906e+01    8.619097e-01
  2.858019e+01    8.331598e-01
  2.869132e+01    8.337003e-01
  2.880245e+01    8.381439e-01
  2.891358e+01    8.044496e-01
  2.902471e+01    8.235950e-01
  2.913583e+01    8.100582e-01
  2.924696e+01    8.173548e-01
  2.935809e+01    7.886623e-01
  2.946922e+01    8.140723e-01
  2.958035e+01    7.746699e-01
  2.969148e+01    7.906460e-01
  2.980261e+01    7.906329e-01
  2.991374e+01    7.806398e-01
  3.002487e+01    7.939059e-01
  3.013600e+01    7.798611e-01
  3.024712e+01    7.717391e-01
  3.035825e+01    8.028053e-01
  3.046938e+01    7.807726e-01
  3.058051e+01    8.009252e-01
  3.069164e+01    7.943537e-01
  3.080277e+01    7.856719e-01
  3.091390e+01    7.774248e-01
  3.102503e+01    7.783509e-01
  3.113616e+01    7.857239e-01
  3.124729e+01    7.848201e-01
  3.135841e+01    7.875082e-01
  3.146954e+01    8.401021e-01
  3.158067e+01    8.697110e-01
  3.169180e+01    9.627606e-01
  3.180293e+01    1.432432e+00
  3.191406e+01    2.035392e+00
  3.202519e+01    1.291172e+00
  3.213632e+01    9.365582e-01
  3.224745e+01    8.435691e-01
  3.235858e+01    7.838421e-01
  3.246970e+01    7.891026e-01
  3.254908e+01    7.977678e-01