Folder: myspot_2024_07/XRD/Reaction conditions (part 44)

File: 2024-07-27_003_Ru-CGO-ex_Reaction_dwell_000023_data_000116.dat
# == pyFAI calibration ==
# Distance Sample to Detector: 0.4 m
# PONI: 9.750e-02, 1.135e-01 m
# Rotations: -0.000175 0.000000 -0.000000 rad
#
# == Fit2d calibration ==
# Distance Sample-beamCenter: 400.000 mm
# Center: x=1514.000, y=1300.000 pix
# Tilt: 0.010 deg  TiltPlanRot: 0.010 deg
#
# Detector Detector	 Spline= None	 PixelSize= 7.500e-05, 7.500e-05 m
#    Detector has a mask: False
#    Detector has a dark current: False
#    detector has a flat field: False
#
# Wavelength: 6.888e-11 m
# Mask applied: user provided
# Dark current applied: False
# Flat field applied: False
# Polarization factor: 0.99
# Normalization factor: 1.0
# --> /home/myspot/data/2024_07_Rosario/Ru-CGO-ex/2024-07-27_003_Ru-CGO-ex_Reaction_dwell_000023_data_000116.dat
#       q_nm^-1             I
  2.003187e-02    1.424646e-01
  1.311609e-01    6.115425e-02
  2.422899e-01    5.565881e-02
  3.534189e-01    2.716423e-02
  4.645479e-01    2.463388e-02
  5.756770e-01    5.569858e-02
  6.868060e-01    4.299977e-02
  7.979350e-01    1.577055e-01
  9.090640e-01    7.767361e-01
  1.020193e+00    1.269266e+00
  1.131322e+00    1.555664e+00
  1.242451e+00    2.323388e+00
  1.353580e+00    2.832652e+00
  1.464709e+00    3.074487e+00
  1.575838e+00    3.251752e+00
  1.686967e+00    3.150624e+00
  1.798096e+00    3.191232e+00
  1.909225e+00    3.081743e+00
  2.020354e+00    3.106543e+00
  2.131483e+00    3.175120e+00
  2.242612e+00    3.119340e+00
  2.353741e+00    3.101768e+00
  2.464870e+00    3.192469e+00
  2.575999e+00    3.239282e+00
  2.687128e+00    3.429806e+00
  2.798257e+00    3.295990e+00
  2.909386e+00    3.453394e+00
  3.020515e+00    3.342626e+00
  3.131644e+00    3.396741e+00
  3.242773e+00    3.333166e+00
  3.353902e+00    3.443698e+00
  3.465031e+00    3.435075e+00
  3.576160e+00    3.389877e+00
  3.687289e+00    3.474755e+00
  3.798418e+00    3.473067e+00
  3.909547e+00    3.449174e+00
  4.020676e+00    3.589478e+00
  4.131806e+00    3.583357e+00
  4.242935e+00    3.577320e+00
  4.354064e+00    3.637415e+00
  4.465193e+00    3.655199e+00
  4.576322e+00    3.668154e+00
  4.687451e+00    3.526536e+00
  4.798580e+00    3.627407e+00
  4.909709e+00    3.599425e+00
  5.020838e+00    3.669980e+00
  5.131967e+00    3.636090e+00
  5.243096e+00    3.685452e+00
  5.354225e+00    3.708144e+00
  5.465354e+00    3.670526e+00
  5.576483e+00    3.550311e+00
  5.687612e+00    3.635848e+00
  5.798741e+00    3.613025e+00
  5.909870e+00    3.570179e+00
  6.020999e+00    3.466981e+00
  6.132128e+00    3.641008e+00
  6.243257e+00    3.463336e+00
  6.354386e+00    3.543028e+00
  6.465515e+00    3.599049e+00
  6.576644e+00    3.585126e+00
  6.687773e+00    3.576043e+00
  6.798902e+00    3.517311e+00
  6.910031e+00    3.489099e+00
  7.021160e+00    3.525181e+00
  7.132289e+00    3.558264e+00
  7.243418e+00    3.455298e+00
  7.354547e+00    3.495728e+00
  7.465676e+00    3.485520e+00
  7.576805e+00    3.416243e+00
  7.687934e+00    3.538569e+00
  7.799063e+00    3.480270e+00
  7.910192e+00    3.509931e+00
  8.021321e+00    3.380703e+00
  8.132450e+00    3.441705e+00
  8.243579e+00    3.539211e+00
  8.354708e+00    3.358925e+00
  8.465837e+00    3.463536e+00
  8.576966e+00    3.397353e+00
  8.688095e+00    3.324661e+00
  8.799224e+00    3.330249e+00
  8.910353e+00    3.308465e+00
  9.021482e+00    3.331523e+00
  9.132611e+00    3.270675e+00
  9.243740e+00    3.270339e+00
  9.354869e+00    3.224297e+00
  9.465998e+00    3.262401e+00
  9.577127e+00    3.254233e+00
  9.688256e+00    3.191570e+00
  9.799385e+00    3.129106e+00
  9.910514e+00    3.192806e+00
  1.002164e+01    3.149658e+00
  1.013277e+01    3.112628e+00
  1.024390e+01    3.063515e+00
  1.035503e+01    3.005792e+00
  1.046616e+01    3.010388e+00
  1.057729e+01    2.984832e+00
  1.068842e+01    3.026260e+00
  1.079955e+01    2.973677e+00
  1.091068e+01    2.929818e+00
  1.102180e+01    2.920172e+00
  1.113293e+01    2.866536e+00
  1.124406e+01    2.815673e+00
  1.135519e+01    2.835800e+00
  1.146632e+01    2.805751e+00
  1.157745e+01    2.780039e+00
  1.168858e+01    2.778171e+00
  1.179971e+01    2.810245e+00
  1.191084e+01    2.706200e+00
  1.202197e+01    2.721751e+00
  1.213309e+01    2.741085e+00
  1.224422e+01    2.715309e+00
  1.235535e+01    2.726948e+00
  1.246648e+01    2.710780e+00
  1.257761e+01    2.779783e+00
  1.268874e+01    2.806692e+00
  1.279987e+01    3.000118e+00
  1.291100e+01    3.669491e+00
  1.302213e+01    6.720428e+00
  1.313326e+01    1.489942e+01
  1.324438e+01    1.066487e+01
  1.335551e+01    4.446018e+00
  1.346664e+01    3.121050e+00
  1.357777e+01    2.773220e+00
  1.368890e+01    2.595577e+00
  1.380003e+01    2.501543e+00
  1.391116e+01    2.405810e+00
  1.402229e+01    2.338205e+00
  1.413342e+01    2.339137e+00
  1.424455e+01    2.256404e+00
  1.435568e+01    2.255307e+00
  1.446680e+01    2.217088e+00
  1.457793e+01    2.228300e+00
  1.468906e+01    2.206760e+00
  1.480019e+01    2.201467e+00
  1.491132e+01    2.329284e+00
  1.502245e+01    2.524460e+00
  1.513358e+01    3.774399e+00
  1.524471e+01    5.775080e+00
  1.535584e+01    3.743717e+00
  1.546697e+01    2.412070e+00
  1.557809e+01    2.123373e+00
  1.568922e+01    2.001319e+00
  1.580035e+01    1.922136e+00
  1.591148e+01    1.897460e+00
  1.602261e+01    1.867296e+00
  1.613374e+01    1.827274e+00
  1.624487e+01    1.807142e+00
  1.635600e+01    1.801864e+00
  1.646713e+01    1.753629e+00
  1.657826e+01    1.726910e+00
  1.668938e+01    1.695262e+00
  1.680051e+01    1.729280e+00
  1.691164e+01    1.704062e+00
  1.702277e+01    1.642211e+00
  1.713390e+01    1.652879e+00
  1.724503e+01    1.621402e+00
  1.735616e+01    1.605197e+00
  1.746729e+01    1.579367e+00
  1.757842e+01    1.598890e+00
  1.768955e+01    1.579579e+00
  1.780067e+01    1.529352e+00
  1.791180e+01    1.531404e+00
  1.802293e+01    1.513434e+00
  1.813406e+01    1.496279e+00
  1.824519e+01    1.496538e+00
  1.835632e+01    1.483478e+00
  1.846745e+01    1.447273e+00
  1.857858e+01    1.436584e+00
  1.868971e+01    1.431235e+00
  1.880084e+01    1.395517e+00
  1.891196e+01    1.408122e+00
  1.902309e+01    1.397478e+00
  1.913422e+01    1.358917e+00
  1.924535e+01    1.373970e+00
  1.935648e+01    1.363635e+00
  1.946761e+01    1.337327e+00
  1.957874e+01    1.353296e+00
  1.968987e+01    1.309604e+00
  1.980100e+01    1.304007e+00
  1.991213e+01    1.285235e+00
  2.002325e+01    1.273682e+00
  2.013438e+01    1.281283e+00
  2.024551e+01    1.248947e+00
  2.035664e+01    1.280195e+00
  2.046777e+01    1.258388e+00
  2.057890e+01    1.224043e+00
  2.069003e+01    1.226069e+00
  2.080116e+01    1.244164e+00
  2.091229e+01    1.220007e+00
  2.102342e+01    1.216130e+00
  2.113455e+01    1.231895e+00
  2.124567e+01    1.246920e+00
  2.135680e+01    1.287019e+00
  2.146793e+01    1.384028e+00
  2.157906e+01    1.620817e+00
  2.169019e+01    2.480162e+00
  2.180132e+01    5.855049e+00
  2.191245e+01    8.752813e+00
  2.202358e+01    3.620977e+00
  2.213471e+01    1.845725e+00
  2.224584e+01    1.395071e+00
  2.235696e+01    1.240798e+00
  2.246809e+01    1.182037e+00
  2.257922e+01    1.130890e+00
  2.269035e+01    1.094695e+00
  2.280148e+01    1.052485e+00
  2.291261e+01    1.034031e+00
  2.302374e+01    1.042513e+00
  2.313487e+01    9.802762e-01
  2.324600e+01    1.018698e+00
  2.335713e+01    9.931571e-01
  2.346825e+01    9.608726e-01
  2.357938e+01    9.857712e-01
  2.369051e+01    9.686394e-01
  2.380164e+01    9.128121e-01
  2.391277e+01    9.068457e-01
  2.402390e+01    8.924406e-01
  2.413503e+01    8.887767e-01
  2.424616e+01    8.782106e-01
  2.435729e+01    8.715869e-01
  2.446842e+01    9.073215e-01
  2.457954e+01    8.917530e-01
  2.469067e+01    9.102960e-01
  2.480180e+01    8.961105e-01
  2.491293e+01    8.982789e-01
  2.502406e+01    9.012790e-01
  2.513519e+01    9.099058e-01
  2.524632e+01    9.513804e-01
  2.535745e+01    9.795106e-01
  2.546858e+01    1.044689e+00
  2.557971e+01    1.174188e+00
  2.569083e+01    1.486325e+00
  2.580196e+01    2.807187e+00
  2.591309e+01    6.330573e+00
  2.602422e+01    5.273488e+00
  2.613535e+01    2.099974e+00
  2.624648e+01    1.343369e+00
  2.635761e+01    1.108134e+00
  2.646874e+01    1.011636e+00
  2.657987e+01    1.003484e+00
  2.669100e+01    9.811604e-01
  2.680212e+01    9.644349e-01
  2.691325e+01    1.021449e+00
  2.702438e+01    1.156483e+00
  2.713551e+01    1.696286e+00
  2.724664e+01    2.119752e+00
  2.735777e+01    1.295493e+00
  2.746890e+01    1.014117e+00
  2.758003e+01    9.408631e-01
  2.769116e+01    9.348801e-01
  2.780229e+01    8.912905e-01
  2.791342e+01    8.738036e-01
  2.802454e+01    8.682576e-01
  2.813567e+01    8.693557e-01
  2.824680e+01    8.668647e-01
  2.835793e+01    8.568054e-01
  2.846906e+01    8.283492e-01
  2.858019e+01    8.549623e-01
  2.869132e+01    8.167701e-01
  2.880245e+01    8.226453e-01
  2.891358e+01    8.239613e-01
  2.902471e+01    8.327862e-01
  2.913583e+01    8.160591e-01
  2.924696e+01    8.065926e-01
  2.935809e+01    8.009604e-01
  2.946922e+01    8.247555e-01
  2.958035e+01    7.862122e-01
  2.969148e+01    7.923636e-01
  2.980261e+01    7.867980e-01
  2.991374e+01    7.709162e-01
  3.002487e+01    8.116764e-01
  3.013600e+01    8.052734e-01
  3.024712e+01    8.023291e-01
  3.035825e+01    7.838850e-01
  3.046938e+01    7.928055e-01
  3.058051e+01    7.901335e-01
  3.069164e+01    7.612731e-01
  3.080277e+01    7.659663e-01
  3.091390e+01    7.872371e-01
  3.102503e+01    7.873415e-01
  3.113616e+01    8.057334e-01
  3.124729e+01    7.748748e-01
  3.135841e+01    7.948021e-01
  3.146954e+01    8.131073e-01
  3.158067e+01    8.576949e-01
  3.169180e+01    1.007547e+00
  3.180293e+01    1.445493e+00
  3.191406e+01    2.094001e+00
  3.202519e+01    1.314286e+00
  3.213632e+01    9.520553e-01
  3.224745e+01    8.175814e-01
  3.235858e+01    8.033991e-01
  3.246970e+01    7.880074e-01
  3.254908e+01    7.631906e-01

File: 2024-07-27_003_Ru-CGO-ex_Reaction_dwell_000023_data_000117.dat
# == pyFAI calibration ==
# Distance Sample to Detector: 0.4 m
# PONI: 9.750e-02, 1.135e-01 m
# Rotations: -0.000175 0.000000 -0.000000 rad
#
# == Fit2d calibration ==
# Distance Sample-beamCenter: 400.000 mm
# Center: x=1514.000, y=1300.000 pix
# Tilt: 0.010 deg  TiltPlanRot: 0.010 deg
#
# Detector Detector	 Spline= None	 PixelSize= 7.500e-05, 7.500e-05 m
#    Detector has a mask: False
#    Detector has a dark current: False
#    detector has a flat field: False
#
# Wavelength: 6.888e-11 m
# Mask applied: user provided
# Dark current applied: False
# Flat field applied: False
# Polarization factor: 0.99
# Normalization factor: 1.0
# --> /home/myspot/data/2024_07_Rosario/Ru-CGO-ex/2024-07-27_003_Ru-CGO-ex_Reaction_dwell_000023_data_000117.dat
#       q_nm^-1             I
  2.003187e-02    7.711996e-02
  1.311609e-01    1.710062e-02
  2.422899e-01    4.163101e-03
  3.534189e-01    2.944477e-02
  4.645479e-01    4.576691e-02
  5.756770e-01    3.572799e-02
  6.868060e-01    2.962286e-02
  7.979350e-01    1.256485e-01
  9.090640e-01    6.130421e-01
  1.020193e+00    1.215542e+00
  1.131322e+00    1.674676e+00
  1.242451e+00    2.430239e+00
  1.353580e+00    2.773215e+00
  1.464709e+00    3.164147e+00
  1.575838e+00    3.041767e+00
  1.686967e+00    3.177613e+00
  1.798096e+00    3.070505e+00
  1.909225e+00    3.147503e+00
  2.020354e+00    2.990692e+00
  2.131483e+00    3.097377e+00
  2.242612e+00    3.224888e+00
  2.353741e+00    3.059438e+00
  2.464870e+00    3.144973e+00
  2.575999e+00    3.158298e+00
  2.687128e+00    3.227092e+00
  2.798257e+00    3.244581e+00
  2.909386e+00    3.293942e+00
  3.020515e+00    3.327878e+00
  3.131644e+00    3.361732e+00
  3.242773e+00    3.345547e+00
  3.353902e+00    3.519572e+00
  3.465031e+00    3.442899e+00
  3.576160e+00    3.422968e+00
  3.687289e+00    3.371293e+00
  3.798418e+00    3.341142e+00
  3.909547e+00    3.507484e+00
  4.020676e+00    3.521284e+00
  4.131806e+00    3.552114e+00
  4.242935e+00    3.561914e+00
  4.354064e+00    3.597236e+00
  4.465193e+00    3.682645e+00
  4.576322e+00    3.609142e+00
  4.687451e+00    3.594777e+00
  4.798580e+00    3.627678e+00
  4.909709e+00    3.578627e+00
  5.020838e+00    3.661715e+00
  5.131967e+00    3.684605e+00
  5.243096e+00    3.596804e+00
  5.354225e+00    3.649295e+00
  5.465354e+00    3.602294e+00
  5.576483e+00    3.616049e+00
  5.687612e+00    3.577292e+00
  5.798741e+00    3.642379e+00
  5.909870e+00    3.544560e+00
  6.020999e+00    3.532323e+00
  6.132128e+00    3.627443e+00
  6.243257e+00    3.636940e+00
  6.354386e+00    3.511254e+00
  6.465515e+00    3.605227e+00
  6.576644e+00    3.544619e+00
  6.687773e+00    3.513933e+00
  6.798902e+00    3.525568e+00
  6.910031e+00    3.502948e+00
  7.021160e+00    3.560154e+00
  7.132289e+00    3.530330e+00
  7.243418e+00    3.553015e+00
  7.354547e+00    3.459336e+00
  7.465676e+00    3.513826e+00
  7.576805e+00    3.466498e+00
  7.687934e+00    3.429112e+00
  7.799063e+00    3.465881e+00
  7.910192e+00    3.464686e+00
  8.021321e+00    3.424351e+00
  8.132450e+00    3.480613e+00
  8.243579e+00    3.559102e+00
  8.354708e+00    3.411352e+00
  8.465837e+00    3.450769e+00
  8.576966e+00    3.367711e+00
  8.688095e+00    3.327084e+00
  8.799224e+00    3.326718e+00
  8.910353e+00    3.337159e+00
  9.021482e+00    3.273881e+00
  9.132611e+00    3.211426e+00
  9.243740e+00    3.230622e+00
  9.354869e+00    3.212373e+00
  9.465998e+00    3.278098e+00
  9.577127e+00    3.215168e+00
  9.688256e+00    3.173591e+00
  9.799385e+00    3.255564e+00
  9.910514e+00    3.117940e+00
  1.002164e+01    3.142483e+00
  1.013277e+01    3.093300e+00
  1.024390e+01    3.045527e+00
  1.035503e+01    3.094760e+00
  1.046616e+01    3.017623e+00
  1.057729e+01    3.034827e+00
  1.068842e+01    2.980765e+00
  1.079955e+01    2.939685e+00
  1.091068e+01    2.927727e+00
  1.102180e+01    2.892339e+00
  1.113293e+01    2.884409e+00
  1.124406e+01    2.885284e+00
  1.135519e+01    2.838786e+00
  1.146632e+01    2.783510e+00
  1.157745e+01    2.783420e+00
  1.168858e+01    2.842534e+00
  1.179971e+01    2.746094e+00
  1.191084e+01    2.743355e+00
  1.202197e+01    2.712125e+00
  1.213309e+01    2.701828e+00
  1.224422e+01    2.712312e+00
  1.235535e+01    2.677767e+00
  1.246648e+01    2.740824e+00
  1.257761e+01    2.701396e+00
  1.268874e+01    2.786505e+00
  1.279987e+01    3.017815e+00
  1.291100e+01    3.607033e+00
  1.302213e+01    6.800883e+00
  1.313326e+01    1.486614e+01
  1.324438e+01    1.081013e+01
  1.335551e+01    4.430422e+00
  1.346664e+01    3.107264e+00
  1.357777e+01    2.715393e+00
  1.368890e+01    2.554173e+00
  1.380003e+01    2.507728e+00
  1.391116e+01    2.376413e+00
  1.402229e+01    2.364982e+00
  1.413342e+01    2.318893e+00
  1.424455e+01    2.285372e+00
  1.435568e+01    2.290837e+00
  1.446680e+01    2.206867e+00
  1.457793e+01    2.184123e+00
  1.468906e+01    2.196009e+00
  1.480019e+01    2.193225e+00
  1.491132e+01    2.263383e+00
  1.502245e+01    2.464472e+00
  1.513358e+01    3.777368e+00
  1.524471e+01    5.793614e+00
  1.535584e+01    3.710446e+00
  1.546697e+01    2.400747e+00
  1.557809e+01    2.095012e+00
  1.568922e+01    1.987454e+00
  1.580035e+01    1.930110e+00
  1.591148e+01    1.918500e+00
  1.602261e+01    1.877617e+00
  1.613374e+01    1.871024e+00
  1.624487e+01    1.789976e+00
  1.635600e+01    1.787453e+00
  1.646713e+01    1.778543e+00
  1.657826e+01    1.749592e+00
  1.668938e+01    1.713647e+00
  1.680051e+01    1.716642e+00
  1.691164e+01    1.716863e+00
  1.702277e+01    1.660429e+00
  1.713390e+01    1.677847e+00
  1.724503e+01    1.628094e+00
  1.735616e+01    1.612042e+00
  1.746729e+01    1.581892e+00
  1.757842e+01    1.545775e+00
  1.768955e+01    1.550873e+00
  1.780067e+01    1.538966e+00
  1.791180e+01    1.533155e+00
  1.802293e+01    1.498538e+00
  1.813406e+01    1.499607e+00
  1.824519e+01    1.478109e+00
  1.835632e+01    1.497695e+00
  1.846745e+01    1.461323e+00
  1.857858e+01    1.458094e+00
  1.868971e+01    1.430785e+00
  1.880084e+01    1.407560e+00
  1.891196e+01    1.357758e+00
  1.902309e+01    1.402355e+00
  1.913422e+01    1.341754e+00
  1.924535e+01    1.398535e+00
  1.935648e+01    1.306206e+00
  1.946761e+01    1.357817e+00
  1.957874e+01    1.332555e+00
  1.968987e+01    1.330172e+00
  1.980100e+01    1.312902e+00
  1.991213e+01    1.293686e+00
  2.002325e+01    1.278667e+00
  2.013438e+01    1.283468e+00
  2.024551e+01    1.254704e+00
  2.035664e+01    1.241172e+00
  2.046777e+01    1.264677e+00
  2.057890e+01    1.230052e+00
  2.069003e+01    1.239931e+00
  2.080116e+01    1.247191e+00
  2.091229e+01    1.233318e+00
  2.102342e+01    1.247963e+00
  2.113455e+01    1.245362e+00
  2.124567e+01    1.228820e+00
  2.135680e+01    1.276464e+00
  2.146793e+01    1.346920e+00
  2.157906e+01    1.600588e+00
  2.169019e+01    2.545512e+00
  2.180132e+01    5.939625e+00
  2.191245e+01    8.709505e+00
  2.202358e+01    3.581840e+00
  2.213471e+01    1.888360e+00
  2.224584e+01    1.386897e+00
  2.235696e+01    1.254166e+00
  2.246809e+01    1.157810e+00
  2.257922e+01    1.131087e+00
  2.269035e+01    1.088466e+00
  2.280148e+01    1.067397e+00
  2.291261e+01    1.019948e+00
  2.302374e+01    1.005620e+00
  2.313487e+01    1.001166e+00
  2.324600e+01    1.017463e+00
  2.335713e+01    9.880319e-01
  2.346825e+01    9.513128e-01
  2.357938e+01    9.742165e-01
  2.369051e+01    9.547275e-01
  2.380164e+01    9.110820e-01
  2.391277e+01    8.804094e-01
  2.402390e+01    8.796937e-01
  2.413503e+01    8.968407e-01
  2.424616e+01    8.988191e-01
  2.435729e+01    9.080302e-01
  2.446842e+01    9.045286e-01
  2.457954e+01    8.993555e-01
  2.469067e+01    8.889440e-01
  2.480180e+01    9.039086e-01
  2.491293e+01    9.032884e-01
  2.502406e+01    8.800112e-01
  2.513519e+01    9.114805e-01
  2.524632e+01    9.359754e-01
  2.535745e+01    9.728112e-01
  2.546858e+01    1.036819e+00
  2.557971e+01    1.167155e+00
  2.569083e+01    1.500926e+00
  2.580196e+01    2.839753e+00
  2.591309e+01    6.387406e+00
  2.602422e+01    5.224104e+00
  2.613535e+01    2.146323e+00
  2.624648e+01    1.338051e+00
  2.635761e+01    1.103914e+00
  2.646874e+01    1.011879e+00
  2.657987e+01    9.970719e-01
  2.669100e+01    9.631060e-01
  2.680212e+01    9.850841e-01
  2.691325e+01    1.019245e+00
  2.702438e+01    1.152453e+00
  2.713551e+01    1.766629e+00
  2.724664e+01    2.083406e+00
  2.735777e+01    1.284410e+00
  2.746890e+01    1.024992e+00
  2.758003e+01    9.492523e-01
  2.769116e+01    9.171233e-01
  2.780229e+01    8.912309e-01
  2.791342e+01    8.881955e-01
  2.802454e+01    8.893695e-01
  2.813567e+01    8.680745e-01
  2.824680e+01    8.516703e-01
  2.835793e+01    8.575202e-01
  2.846906e+01    8.465342e-01
  2.858019e+01    8.484587e-01
  2.869132e+01    8.662154e-01
  2.880245e+01    8.084211e-01
  2.891358e+01    8.093107e-01
  2.902471e+01    8.058521e-01
  2.913583e+01    8.210943e-01
  2.924696e+01    7.948514e-01
  2.935809e+01    8.315097e-01
  2.946922e+01    7.924371e-01
  2.958035e+01    7.949984e-01
  2.969148e+01    7.959035e-01
  2.980261e+01    7.707796e-01
  2.991374e+01    8.072495e-01
  3.002487e+01    7.756816e-01
  3.013600e+01    7.864878e-01
  3.024712e+01    7.971638e-01
  3.035825e+01    7.882423e-01
  3.046938e+01    7.910275e-01
  3.058051e+01    7.872133e-01
  3.069164e+01    7.890806e-01
  3.080277e+01    8.006051e-01
  3.091390e+01    7.752776e-01
  3.102503e+01    7.980288e-01
  3.113616e+01    7.887886e-01
  3.124729e+01    7.905926e-01
  3.135841e+01    8.056573e-01
  3.146954e+01    8.044041e-01
  3.158067e+01    8.519135e-01
  3.169180e+01    9.824598e-01
  3.180293e+01    1.470114e+00
  3.191406e+01    2.076124e+00
  3.202519e+01    1.298594e+00
  3.213632e+01    9.240280e-01
  3.224745e+01    8.450732e-01
  3.235858e+01    7.784478e-01
  3.246970e+01    7.925218e-01
  3.254908e+01    7.641236e-01