Folder: myspot_2024_07/XRD/Reaction conditions (part 31)

File: 2024-07-27_003_Ru-CGO-ex_Reaction_dwell_000023_data_000082.dat
# == pyFAI calibration ==
# Distance Sample to Detector: 0.4 m
# PONI: 9.750e-02, 1.135e-01 m
# Rotations: -0.000175 0.000000 -0.000000 rad
#
# == Fit2d calibration ==
# Distance Sample-beamCenter: 400.000 mm
# Center: x=1514.000, y=1300.000 pix
# Tilt: 0.010 deg  TiltPlanRot: 0.010 deg
#
# Detector Detector	 Spline= None	 PixelSize= 7.500e-05, 7.500e-05 m
#    Detector has a mask: False
#    Detector has a dark current: False
#    detector has a flat field: False
#
# Wavelength: 6.888e-11 m
# Mask applied: user provided
# Dark current applied: False
# Flat field applied: False
# Polarization factor: 0.99
# Normalization factor: 1.0
# --> /home/myspot/data/2024_07_Rosario/Ru-CGO-ex/2024-07-27_003_Ru-CGO-ex_Reaction_dwell_000023_data_000082.dat
#       q_nm^-1             I
  2.003187e-02    3.738191e-01
  1.311609e-01    1.472141e-01
  2.422899e-01    3.859831e-02
  3.534189e-01    5.434532e-02
  4.645479e-01    5.521421e-02
  5.756770e-01    3.895916e-02
  6.868060e-01    5.820722e-02
  7.979350e-01    1.449597e-01
  9.090640e-01    5.943918e-01
  1.020193e+00    1.318480e+00
  1.131322e+00    1.527059e+00
  1.242451e+00    2.440765e+00
  1.353580e+00    2.838186e+00
  1.464709e+00    3.122084e+00
  1.575838e+00    3.123283e+00
  1.686967e+00    3.098578e+00
  1.798096e+00    3.002283e+00
  1.909225e+00    3.068495e+00
  2.020354e+00    3.104529e+00
  2.131483e+00    3.172094e+00
  2.242612e+00    3.004179e+00
  2.353741e+00    3.199747e+00
  2.464870e+00    3.199003e+00
  2.575999e+00    3.158684e+00
  2.687128e+00    3.289040e+00
  2.798257e+00    3.132273e+00
  2.909386e+00    3.320286e+00
  3.020515e+00    3.311727e+00
  3.131644e+00    3.336304e+00
  3.242773e+00    3.435739e+00
  3.353902e+00    3.373405e+00
  3.465031e+00    3.402616e+00
  3.576160e+00    3.518667e+00
  3.687289e+00    3.644778e+00
  3.798418e+00    3.492779e+00
  3.909547e+00    3.471307e+00
  4.020676e+00    3.566910e+00
  4.131806e+00    3.541069e+00
  4.242935e+00    3.689006e+00
  4.354064e+00    3.529196e+00
  4.465193e+00    3.607834e+00
  4.576322e+00    3.620291e+00
  4.687451e+00    3.652895e+00
  4.798580e+00    3.680471e+00
  4.909709e+00    3.623544e+00
  5.020838e+00    3.704628e+00
  5.131967e+00    3.701462e+00
  5.243096e+00    3.675141e+00
  5.354225e+00    3.729905e+00
  5.465354e+00    3.621468e+00
  5.576483e+00    3.679950e+00
  5.687612e+00    3.529426e+00
  5.798741e+00    3.598011e+00
  5.909870e+00    3.723390e+00
  6.020999e+00    3.506207e+00
  6.132128e+00    3.551596e+00
  6.243257e+00    3.599573e+00
  6.354386e+00    3.657308e+00
  6.465515e+00    3.621721e+00
  6.576644e+00    3.605812e+00
  6.687773e+00    3.468102e+00
  6.798902e+00    3.527101e+00
  6.910031e+00    3.619756e+00
  7.021160e+00    3.546994e+00
  7.132289e+00    3.461883e+00
  7.243418e+00    3.578559e+00
  7.354547e+00    3.525086e+00
  7.465676e+00    3.548118e+00
  7.576805e+00    3.463564e+00
  7.687934e+00    3.459306e+00
  7.799063e+00    3.508645e+00
  7.910192e+00    3.432630e+00
  8.021321e+00    3.529219e+00
  8.132450e+00    3.502891e+00
  8.243579e+00    3.417984e+00
  8.354708e+00    3.329433e+00
  8.465837e+00    3.417796e+00
  8.576966e+00    3.332616e+00
  8.688095e+00    3.379184e+00
  8.799224e+00    3.349857e+00
  8.910353e+00    3.299991e+00
  9.021482e+00    3.266785e+00
  9.132611e+00    3.234910e+00
  9.243740e+00    3.299959e+00
  9.354869e+00    3.237862e+00
  9.465998e+00    3.197484e+00
  9.577127e+00    3.259495e+00
  9.688256e+00    3.211941e+00
  9.799385e+00    3.242910e+00
  9.910514e+00    3.203131e+00
  1.002164e+01    3.139760e+00
  1.013277e+01    3.120423e+00
  1.024390e+01    3.069185e+00
  1.035503e+01    3.073003e+00
  1.046616e+01    3.042253e+00
  1.057729e+01    3.041510e+00
  1.068842e+01    2.931513e+00
  1.079955e+01    2.993284e+00
  1.091068e+01    2.915554e+00
  1.102180e+01    2.937877e+00
  1.113293e+01    2.889771e+00
  1.124406e+01    2.877887e+00
  1.135519e+01    2.832837e+00
  1.146632e+01    2.852175e+00
  1.157745e+01    2.793273e+00
  1.168858e+01    2.823125e+00
  1.179971e+01    2.765555e+00
  1.191084e+01    2.727153e+00
  1.202197e+01    2.749629e+00
  1.213309e+01    2.712290e+00
  1.224422e+01    2.679540e+00
  1.235535e+01    2.759969e+00
  1.246648e+01    2.797561e+00
  1.257761e+01    2.759512e+00
  1.268874e+01    2.821382e+00
  1.279987e+01    3.025590e+00
  1.291100e+01    3.733437e+00
  1.302213e+01    6.783191e+00
  1.313326e+01    1.503890e+01
  1.324438e+01    1.080943e+01
  1.335551e+01    4.445205e+00
  1.346664e+01    3.110663e+00
  1.357777e+01    2.759244e+00
  1.368890e+01    2.558249e+00
  1.380003e+01    2.465851e+00
  1.391116e+01    2.461641e+00
  1.402229e+01    2.381016e+00
  1.413342e+01    2.296551e+00
  1.424455e+01    2.273141e+00
  1.435568e+01    2.231428e+00
  1.446680e+01    2.268978e+00
  1.457793e+01    2.233948e+00
  1.468906e+01    2.226817e+00
  1.480019e+01    2.234615e+00
  1.491132e+01    2.284512e+00
  1.502245e+01    2.511023e+00
  1.513358e+01    3.792343e+00
  1.524471e+01    5.754452e+00
  1.535584e+01    3.769925e+00
  1.546697e+01    2.434622e+00
  1.557809e+01    2.130928e+00
  1.568922e+01    2.014917e+00
  1.580035e+01    2.009002e+00
  1.591148e+01    1.942618e+00
  1.602261e+01    1.860296e+00
  1.613374e+01    1.842108e+00
  1.624487e+01    1.816767e+00
  1.635600e+01    1.793986e+00
  1.646713e+01    1.772221e+00
  1.657826e+01    1.774656e+00
  1.668938e+01    1.735363e+00
  1.680051e+01    1.714362e+00
  1.691164e+01    1.679301e+00
  1.702277e+01    1.658743e+00
  1.713390e+01    1.662303e+00
  1.724503e+01    1.623488e+00
  1.735616e+01    1.651728e+00
  1.746729e+01    1.592643e+00
  1.757842e+01    1.570207e+00
  1.768955e+01    1.589865e+00
  1.780067e+01    1.565736e+00
  1.791180e+01    1.513643e+00
  1.802293e+01    1.537687e+00
  1.813406e+01    1.470770e+00
  1.824519e+01    1.469054e+00
  1.835632e+01    1.456748e+00
  1.846745e+01    1.463347e+00
  1.857858e+01    1.434597e+00
  1.868971e+01    1.423345e+00
  1.880084e+01    1.437947e+00
  1.891196e+01    1.395187e+00
  1.902309e+01    1.340853e+00
  1.913422e+01    1.376271e+00
  1.924535e+01    1.359128e+00
  1.935648e+01    1.361358e+00
  1.946761e+01    1.336729e+00
  1.957874e+01    1.322389e+00
  1.968987e+01    1.302346e+00
  1.980100e+01    1.326733e+00
  1.991213e+01    1.256063e+00
  2.002325e+01    1.290274e+00
  2.013438e+01    1.279966e+00
  2.024551e+01    1.248392e+00
  2.035664e+01    1.262582e+00
  2.046777e+01    1.216422e+00
  2.057890e+01    1.229503e+00
  2.069003e+01    1.240013e+00
  2.080116e+01    1.247994e+00
  2.091229e+01    1.220405e+00
  2.102342e+01    1.257726e+00
  2.113455e+01    1.244618e+00
  2.124567e+01    1.273957e+00
  2.135680e+01    1.283821e+00
  2.146793e+01    1.388275e+00
  2.157906e+01    1.604420e+00
  2.169019e+01    2.524927e+00
  2.180132e+01    5.872549e+00
  2.191245e+01    8.834261e+00
  2.202358e+01    3.690256e+00
  2.213471e+01    1.888306e+00
  2.224584e+01    1.413149e+00
  2.235696e+01    1.265718e+00
  2.246809e+01    1.160852e+00
  2.257922e+01    1.149219e+00
  2.269035e+01    1.111177e+00
  2.280148e+01    1.059016e+00
  2.291261e+01    1.028174e+00
  2.302374e+01    1.036500e+00
  2.313487e+01    1.011400e+00
  2.324600e+01    1.016227e+00
  2.335713e+01    9.811747e-01
  2.346825e+01    9.744720e-01
  2.357938e+01    9.656758e-01
  2.369051e+01    9.431220e-01
  2.380164e+01    9.225719e-01
  2.391277e+01    9.224345e-01
  2.402390e+01    8.976792e-01
  2.413503e+01    8.821834e-01
  2.424616e+01    8.650034e-01
  2.435729e+01    8.913845e-01
  2.446842e+01    8.961856e-01
  2.457954e+01    8.955673e-01
  2.469067e+01    8.861151e-01
  2.480180e+01    9.139844e-01
  2.491293e+01    8.989398e-01
  2.502406e+01    8.934121e-01
  2.513519e+01    9.164466e-01
  2.524632e+01    9.447762e-01
  2.535745e+01    9.700037e-01
  2.546858e+01    1.062257e+00
  2.557971e+01    1.144093e+00
  2.569083e+01    1.510783e+00
  2.580196e+01    2.800916e+00
  2.591309e+01    6.393939e+00
  2.602422e+01    5.322962e+00
  2.613535e+01    2.118207e+00
  2.624648e+01    1.381987e+00
  2.635761e+01    1.108486e+00
  2.646874e+01    1.041654e+00
  2.657987e+01    9.712466e-01
  2.669100e+01    9.799103e-01
  2.680212e+01    9.789950e-01
  2.691325e+01    1.002261e+00
  2.702438e+01    1.177489e+00
  2.713551e+01    1.735189e+00
  2.724664e+01    2.131790e+00
  2.735777e+01    1.278600e+00
  2.746890e+01    1.030256e+00
  2.758003e+01    9.661163e-01
  2.769116e+01    9.011638e-01
  2.780229e+01    8.697526e-01
  2.791342e+01    8.890721e-01
  2.802454e+01    8.457835e-01
  2.813567e+01    8.721526e-01
  2.824680e+01    8.649167e-01
  2.835793e+01    8.598307e-01
  2.846906e+01    8.231349e-01
  2.858019e+01    8.509108e-01
  2.869132e+01    8.275901e-01
  2.880245e+01    8.385368e-01
  2.891358e+01    8.194749e-01
  2.902471e+01    7.998888e-01
  2.913583e+01    8.205625e-01
  2.924696e+01    8.178122e-01
  2.935809e+01    8.119310e-01
  2.946922e+01    8.040418e-01
  2.958035e+01    8.102981e-01
  2.969148e+01    8.097706e-01
  2.980261e+01    8.031393e-01
  2.991374e+01    8.155767e-01
  3.002487e+01    8.193923e-01
  3.013600e+01    8.226572e-01
  3.024712e+01    7.817813e-01
  3.035825e+01    7.889961e-01
  3.046938e+01    7.916990e-01
  3.058051e+01    7.886962e-01
  3.069164e+01    7.964060e-01
  3.080277e+01    8.066127e-01
  3.091390e+01    7.811449e-01
  3.102503e+01    7.897863e-01
  3.113616e+01    7.913319e-01
  3.124729e+01    7.885612e-01
  3.135841e+01    8.203884e-01
  3.146954e+01    8.088130e-01
  3.158067e+01    8.703840e-01
  3.169180e+01    1.006014e+00
  3.180293e+01    1.488561e+00
  3.191406e+01    2.126233e+00
  3.202519e+01    1.327507e+00
  3.213632e+01    9.636350e-01
  3.224745e+01    8.287166e-01
  3.235858e+01    7.896819e-01
  3.246970e+01    7.705670e-01
  3.254908e+01    7.823281e-01

File: 2024-07-27_003_Ru-CGO-ex_Reaction_dwell_000023_data_000083.dat
# == pyFAI calibration ==
# Distance Sample to Detector: 0.4 m
# PONI: 9.750e-02, 1.135e-01 m
# Rotations: -0.000175 0.000000 -0.000000 rad
#
# == Fit2d calibration ==
# Distance Sample-beamCenter: 400.000 mm
# Center: x=1514.000, y=1300.000 pix
# Tilt: 0.010 deg  TiltPlanRot: 0.010 deg
#
# Detector Detector	 Spline= None	 PixelSize= 7.500e-05, 7.500e-05 m
#    Detector has a mask: False
#    Detector has a dark current: False
#    detector has a flat field: False
#
# Wavelength: 6.888e-11 m
# Mask applied: user provided
# Dark current applied: False
# Flat field applied: False
# Polarization factor: 0.99
# Normalization factor: 1.0
# --> /home/myspot/data/2024_07_Rosario/Ru-CGO-ex/2024-07-27_003_Ru-CGO-ex_Reaction_dwell_000023_data_000083.dat
#       q_nm^-1             I
  2.003187e-02    0.000000e+00
  1.311609e-01    3.938977e-02
  2.422899e-01    2.015365e-02
  3.534189e-01    8.569819e-02
  4.645479e-01    2.082535e-02
  5.756770e-01    6.393132e-02
  6.868060e-01    2.744622e-02
  7.979350e-01    1.811170e-01
  9.090640e-01    6.455531e-01
  1.020193e+00    1.286770e+00
  1.131322e+00    1.738592e+00
  1.242451e+00    2.409326e+00
  1.353580e+00    2.772239e+00
  1.464709e+00    2.975966e+00
  1.575838e+00    3.061719e+00
  1.686967e+00    3.156656e+00
  1.798096e+00    3.029123e+00
  1.909225e+00    3.100215e+00
  2.020354e+00    3.040004e+00
  2.131483e+00    3.082431e+00
  2.242612e+00    3.138042e+00
  2.353741e+00    3.231614e+00
  2.464870e+00    3.254501e+00
  2.575999e+00    3.168673e+00
  2.687128e+00    3.246170e+00
  2.798257e+00    3.291425e+00
  2.909386e+00    3.297332e+00
  3.020515e+00    3.385698e+00
  3.131644e+00    3.301244e+00
  3.242773e+00    3.468047e+00
  3.353902e+00    3.414155e+00
  3.465031e+00    3.424990e+00
  3.576160e+00    3.415591e+00
  3.687289e+00    3.462038e+00
  3.798418e+00    3.535393e+00
  3.909547e+00    3.489826e+00
  4.020676e+00    3.557263e+00
  4.131806e+00    3.463566e+00
  4.242935e+00    3.538873e+00
  4.354064e+00    3.572469e+00
  4.465193e+00    3.527398e+00
  4.576322e+00    3.697861e+00
  4.687451e+00    3.590120e+00
  4.798580e+00    3.611227e+00
  4.909709e+00    3.718589e+00
  5.020838e+00    3.674586e+00
  5.131967e+00    3.705337e+00
  5.243096e+00    3.608377e+00
  5.354225e+00    3.655215e+00
  5.465354e+00    3.683853e+00
  5.576483e+00    3.607392e+00
  5.687612e+00    3.469646e+00
  5.798741e+00    3.587742e+00
  5.909870e+00    3.477636e+00
  6.020999e+00    3.569400e+00
  6.132128e+00    3.678531e+00
  6.243257e+00    3.671172e+00
  6.354386e+00    3.582181e+00
  6.465515e+00    3.620265e+00
  6.576644e+00    3.568439e+00
  6.687773e+00    3.551314e+00
  6.798902e+00    3.521763e+00
  6.910031e+00    3.584310e+00
  7.021160e+00    3.548090e+00
  7.132289e+00    3.542603e+00
  7.243418e+00    3.600307e+00
  7.354547e+00    3.474474e+00
  7.465676e+00    3.498032e+00
  7.576805e+00    3.490428e+00
  7.687934e+00    3.436275e+00
  7.799063e+00    3.495997e+00
  7.910192e+00    3.415942e+00
  8.021321e+00    3.420696e+00
  8.132450e+00    3.436681e+00
  8.243579e+00    3.465851e+00
  8.354708e+00    3.398647e+00
  8.465837e+00    3.335015e+00
  8.576966e+00    3.384379e+00
  8.688095e+00    3.361885e+00
  8.799224e+00    3.360579e+00
  8.910353e+00    3.365949e+00
  9.021482e+00    3.335456e+00
  9.132611e+00    3.320384e+00
  9.243740e+00    3.303342e+00
  9.354869e+00    3.211646e+00
  9.465998e+00    3.212399e+00
  9.577127e+00    3.227611e+00
  9.688256e+00    3.185552e+00
  9.799385e+00    3.186784e+00
  9.910514e+00    3.144123e+00
  1.002164e+01    3.103558e+00
  1.013277e+01    3.107617e+00
  1.024390e+01    3.089569e+00
  1.035503e+01    3.054323e+00
  1.046616e+01    3.056818e+00
  1.057729e+01    3.001794e+00
  1.068842e+01    3.034535e+00
  1.079955e+01    2.951586e+00
  1.091068e+01    2.887425e+00
  1.102180e+01    2.944007e+00
  1.113293e+01    2.901141e+00
  1.124406e+01    2.879738e+00
  1.135519e+01    2.865484e+00
  1.146632e+01    2.774704e+00
  1.157745e+01    2.814186e+00
  1.168858e+01    2.738956e+00
  1.179971e+01    2.770720e+00
  1.191084e+01    2.731789e+00
  1.202197e+01    2.719485e+00
  1.213309e+01    2.731002e+00
  1.224422e+01    2.758016e+00
  1.235535e+01    2.699966e+00
  1.246648e+01    2.728603e+00
  1.257761e+01    2.765368e+00
  1.268874e+01    2.788477e+00
  1.279987e+01    2.999870e+00
  1.291100e+01    3.674014e+00
  1.302213e+01    6.761457e+00
  1.313326e+01    1.500507e+01
  1.324438e+01    1.081414e+01
  1.335551e+01    4.475300e+00
  1.346664e+01    3.159285e+00
  1.357777e+01    2.743576e+00
  1.368890e+01    2.577247e+00
  1.380003e+01    2.447248e+00
  1.391116e+01    2.413474e+00
  1.402229e+01    2.340924e+00
  1.413342e+01    2.351462e+00
  1.424455e+01    2.313861e+00
  1.435568e+01    2.284062e+00
  1.446680e+01    2.254961e+00
  1.457793e+01    2.235941e+00
  1.468906e+01    2.207547e+00
  1.480019e+01    2.213238e+00
  1.491132e+01    2.229787e+00
  1.502245e+01    2.487293e+00
  1.513358e+01    3.820393e+00
  1.524471e+01    5.753324e+00
  1.535584e+01    3.779729e+00
  1.546697e+01    2.467021e+00
  1.557809e+01    2.151124e+00
  1.568922e+01    2.053670e+00
  1.580035e+01    1.980492e+00
  1.591148e+01    1.905735e+00
  1.602261e+01    1.850339e+00
  1.613374e+01    1.839676e+00
  1.624487e+01    1.829750e+00
  1.635600e+01    1.811918e+00
  1.646713e+01    1.772164e+00
  1.657826e+01    1.759913e+00
  1.668938e+01    1.681377e+00
  1.680051e+01    1.722426e+00
  1.691164e+01    1.680136e+00
  1.702277e+01    1.674291e+00
  1.713390e+01    1.624459e+00
  1.724503e+01    1.582672e+00
  1.735616e+01    1.597932e+00
  1.746729e+01    1.605347e+00
  1.757842e+01    1.607603e+00
  1.768955e+01    1.515980e+00
  1.780067e+01    1.518453e+00
  1.791180e+01    1.528815e+00
  1.802293e+01    1.511450e+00
  1.813406e+01    1.496936e+00
  1.824519e+01    1.477564e+00
  1.835632e+01    1.468119e+00
  1.846745e+01    1.415895e+00
  1.857858e+01    1.449608e+00
  1.868971e+01    1.451072e+00
  1.880084e+01    1.448984e+00
  1.891196e+01    1.409580e+00
  1.902309e+01    1.402543e+00
  1.913422e+01    1.376925e+00
  1.924535e+01    1.352078e+00
  1.935648e+01    1.365249e+00
  1.946761e+01    1.339724e+00
  1.957874e+01    1.333780e+00
  1.968987e+01    1.336024e+00
  1.980100e+01    1.284059e+00
  1.991213e+01    1.305753e+00
  2.002325e+01    1.271563e+00
  2.013438e+01    1.262775e+00
  2.024551e+01    1.253062e+00
  2.035664e+01    1.249508e+00
  2.046777e+01    1.241774e+00
  2.057890e+01    1.262590e+00
  2.069003e+01    1.231418e+00
  2.080116e+01    1.235723e+00
  2.091229e+01    1.225799e+00
  2.102342e+01    1.211326e+00
  2.113455e+01    1.223429e+00
  2.124567e+01    1.242109e+00
  2.135680e+01    1.296065e+00
  2.146793e+01    1.364838e+00
  2.157906e+01    1.635713e+00
  2.169019e+01    2.536971e+00
  2.180132e+01    5.849611e+00
  2.191245e+01    8.835104e+00
  2.202358e+01    3.637134e+00
  2.213471e+01    1.889536e+00
  2.224584e+01    1.426940e+00
  2.235696e+01    1.225220e+00
  2.246809e+01    1.149424e+00
  2.257922e+01    1.119892e+00
  2.269035e+01    1.069182e+00
  2.280148e+01    1.077721e+00
  2.291261e+01    1.041645e+00
  2.302374e+01    1.006708e+00
  2.313487e+01    1.017626e+00
  2.324600e+01    9.922348e-01
  2.335713e+01    9.638502e-01
  2.346825e+01    9.703225e-01
  2.357938e+01    9.582713e-01
  2.369051e+01    9.246186e-01
  2.380164e+01    9.107888e-01
  2.391277e+01    9.132855e-01
  2.402390e+01    9.069864e-01
  2.413503e+01    8.821859e-01
  2.424616e+01    8.787133e-01
  2.435729e+01    9.017953e-01
  2.446842e+01    8.930945e-01
  2.457954e+01    8.973684e-01
  2.469067e+01    9.064966e-01
  2.480180e+01    8.948513e-01
  2.491293e+01    9.072827e-01
  2.502406e+01    9.072926e-01
  2.513519e+01    9.195058e-01
  2.524632e+01    9.495459e-01
  2.535745e+01    9.869858e-01
  2.546858e+01    1.030964e+00
  2.557971e+01    1.164714e+00
  2.569083e+01    1.523561e+00
  2.580196e+01    2.836056e+00
  2.591309e+01    6.363092e+00
  2.602422e+01    5.328846e+00
  2.613535e+01    2.147723e+00
  2.624648e+01    1.358460e+00
  2.635761e+01    1.132341e+00
  2.646874e+01    1.033127e+00
  2.657987e+01    1.000555e+00
  2.669100e+01    9.706649e-01
  2.680212e+01    9.801587e-01
  2.691325e+01    9.973105e-01
  2.702438e+01    1.187469e+00
  2.713551e+01    1.729419e+00
  2.724664e+01    2.130709e+00
  2.735777e+01    1.302297e+00
  2.746890e+01    1.004377e+00
  2.758003e+01    9.228486e-01
  2.769116e+01    8.813167e-01
  2.780229e+01    9.003675e-01
  2.791342e+01    8.925037e-01
  2.802454e+01    8.820801e-01
  2.813567e+01    8.561750e-01
  2.824680e+01    8.482081e-01
  2.835793e+01    8.356073e-01
  2.846906e+01    8.343772e-01
  2.858019e+01    8.403221e-01
  2.869132e+01    8.319439e-01
  2.880245e+01    8.156949e-01
  2.891358e+01    8.336260e-01
  2.902471e+01    8.278365e-01
  2.913583e+01    8.109041e-01
  2.924696e+01    8.028022e-01
  2.935809e+01    8.153086e-01
  2.946922e+01    8.033329e-01
  2.958035e+01    8.178595e-01
  2.969148e+01    7.998106e-01
  2.980261e+01    8.062083e-01
  2.991374e+01    8.142661e-01
  3.002487e+01    8.114092e-01
  3.013600e+01    7.825996e-01
  3.024712e+01    7.973040e-01
  3.035825e+01    7.933567e-01
  3.046938e+01    7.755699e-01
  3.058051e+01    7.811816e-01
  3.069164e+01    7.952026e-01
  3.080277e+01    7.836209e-01
  3.091390e+01    7.825818e-01
  3.102503e+01    7.861362e-01
  3.113616e+01    8.002068e-01
  3.124729e+01    8.083825e-01
  3.135841e+01    8.013759e-01
  3.146954e+01    8.323507e-01
  3.158067e+01    8.431839e-01
  3.169180e+01    9.843806e-01
  3.180293e+01    1.439076e+00
  3.191406e+01    2.109209e+00
  3.202519e+01    1.354069e+00
  3.213632e+01    9.493026e-01
  3.224745e+01    8.495761e-01
  3.235858e+01    8.137441e-01
  3.246970e+01    8.094945e-01
  3.254908e+01    7.811696e-01