Folder: myspot_2024_07/XRD/Reaction conditions (part 32)

File: 2024-07-27_003_Ru-CGO-ex_Reaction_dwell_000023_data_000084.dat
# == pyFAI calibration ==
# Distance Sample to Detector: 0.4 m
# PONI: 9.750e-02, 1.135e-01 m
# Rotations: -0.000175 0.000000 -0.000000 rad
#
# == Fit2d calibration ==
# Distance Sample-beamCenter: 400.000 mm
# Center: x=1514.000, y=1300.000 pix
# Tilt: 0.010 deg  TiltPlanRot: 0.010 deg
#
# Detector Detector	 Spline= None	 PixelSize= 7.500e-05, 7.500e-05 m
#    Detector has a mask: False
#    Detector has a dark current: False
#    detector has a flat field: False
#
# Wavelength: 6.888e-11 m
# Mask applied: user provided
# Dark current applied: False
# Flat field applied: False
# Polarization factor: 0.99
# Normalization factor: 1.0
# --> /home/myspot/data/2024_07_Rosario/Ru-CGO-ex/2024-07-27_003_Ru-CGO-ex_Reaction_dwell_000023_data_000084.dat
#       q_nm^-1             I
  2.003187e-02    0.000000e+00
  1.311609e-01    1.133310e-01
  2.422899e-01    2.922317e-02
  3.534189e-01    2.193955e-03
  4.645479e-01    4.926337e-02
  5.756770e-01    2.763939e-02
  6.868060e-01    5.617283e-02
  7.979350e-01    2.001626e-01
  9.090640e-01    6.523784e-01
  1.020193e+00    1.184270e+00
  1.131322e+00    1.611238e+00
  1.242451e+00    2.422468e+00
  1.353580e+00    2.713161e+00
  1.464709e+00    3.173693e+00
  1.575838e+00    3.410661e+00
  1.686967e+00    3.177635e+00
  1.798096e+00    3.099560e+00
  1.909225e+00    3.093390e+00
  2.020354e+00    3.185986e+00
  2.131483e+00    3.006066e+00
  2.242612e+00    3.062850e+00
  2.353741e+00    3.233865e+00
  2.464870e+00    3.192615e+00
  2.575999e+00    3.090505e+00
  2.687128e+00    3.259340e+00
  2.798257e+00    3.275596e+00
  2.909386e+00    3.375047e+00
  3.020515e+00    3.361502e+00
  3.131644e+00    3.377634e+00
  3.242773e+00    3.402623e+00
  3.353902e+00    3.364679e+00
  3.465031e+00    3.385986e+00
  3.576160e+00    3.474858e+00
  3.687289e+00    3.430976e+00
  3.798418e+00    3.558631e+00
  3.909547e+00    3.527045e+00
  4.020676e+00    3.559666e+00
  4.131806e+00    3.470117e+00
  4.242935e+00    3.578316e+00
  4.354064e+00    3.501243e+00
  4.465193e+00    3.586920e+00
  4.576322e+00    3.566017e+00
  4.687451e+00    3.641827e+00
  4.798580e+00    3.584313e+00
  4.909709e+00    3.687369e+00
  5.020838e+00    3.713531e+00
  5.131967e+00    3.652012e+00
  5.243096e+00    3.593166e+00
  5.354225e+00    3.680643e+00
  5.465354e+00    3.627523e+00
  5.576483e+00    3.608154e+00
  5.687612e+00    3.554460e+00
  5.798741e+00    3.535304e+00
  5.909870e+00    3.503726e+00
  6.020999e+00    3.624916e+00
  6.132128e+00    3.621924e+00
  6.243257e+00    3.672018e+00
  6.354386e+00    3.494579e+00
  6.465515e+00    3.557304e+00
  6.576644e+00    3.560892e+00
  6.687773e+00    3.511870e+00
  6.798902e+00    3.556637e+00
  6.910031e+00    3.597201e+00
  7.021160e+00    3.534126e+00
  7.132289e+00    3.532879e+00
  7.243418e+00    3.448955e+00
  7.354547e+00    3.554098e+00
  7.465676e+00    3.494298e+00
  7.576805e+00    3.523076e+00
  7.687934e+00    3.490175e+00
  7.799063e+00    3.453151e+00
  7.910192e+00    3.428722e+00
  8.021321e+00    3.403148e+00
  8.132450e+00    3.453278e+00
  8.243579e+00    3.495932e+00
  8.354708e+00    3.422459e+00
  8.465837e+00    3.414036e+00
  8.576966e+00    3.319048e+00
  8.688095e+00    3.335816e+00
  8.799224e+00    3.297185e+00
  8.910353e+00    3.318054e+00
  9.021482e+00    3.321467e+00
  9.132611e+00    3.253096e+00
  9.243740e+00    3.269039e+00
  9.354869e+00    3.254905e+00
  9.465998e+00    3.222473e+00
  9.577127e+00    3.236312e+00
  9.688256e+00    3.248881e+00
  9.799385e+00    3.174128e+00
  9.910514e+00    3.099890e+00
  1.002164e+01    3.138409e+00
  1.013277e+01    3.154268e+00
  1.024390e+01    3.066077e+00
  1.035503e+01    3.040097e+00
  1.046616e+01    3.000549e+00
  1.057729e+01    3.025380e+00
  1.068842e+01    2.941804e+00
  1.079955e+01    2.917318e+00
  1.091068e+01    2.932883e+00
  1.102180e+01    2.898037e+00
  1.113293e+01    2.862458e+00
  1.124406e+01    2.824793e+00
  1.135519e+01    2.844694e+00
  1.146632e+01    2.778127e+00
  1.157745e+01    2.778007e+00
  1.168858e+01    2.749634e+00
  1.179971e+01    2.717414e+00
  1.191084e+01    2.691335e+00
  1.202197e+01    2.756959e+00
  1.213309e+01    2.681302e+00
  1.224422e+01    2.658602e+00
  1.235535e+01    2.664562e+00
  1.246648e+01    2.744386e+00
  1.257761e+01    2.716111e+00
  1.268874e+01    2.758173e+00
  1.279987e+01    3.011480e+00
  1.291100e+01    3.713459e+00
  1.302213e+01    6.790534e+00
  1.313326e+01    1.493655e+01
  1.324438e+01    1.066388e+01
  1.335551e+01    4.437227e+00
  1.346664e+01    3.105506e+00
  1.357777e+01    2.744486e+00
  1.368890e+01    2.567321e+00
  1.380003e+01    2.466349e+00
  1.391116e+01    2.443769e+00
  1.402229e+01    2.377490e+00
  1.413342e+01    2.315418e+00
  1.424455e+01    2.256161e+00
  1.435568e+01    2.232707e+00
  1.446680e+01    2.257546e+00
  1.457793e+01    2.192325e+00
  1.468906e+01    2.202603e+00
  1.480019e+01    2.227756e+00
  1.491132e+01    2.244408e+00
  1.502245e+01    2.498947e+00
  1.513358e+01    3.889524e+00
  1.524471e+01    5.785222e+00
  1.535584e+01    3.750084e+00
  1.546697e+01    2.430520e+00
  1.557809e+01    2.107583e+00
  1.568922e+01    2.051473e+00
  1.580035e+01    1.951230e+00
  1.591148e+01    1.941429e+00
  1.602261e+01    1.827531e+00
  1.613374e+01    1.810032e+00
  1.624487e+01    1.815596e+00
  1.635600e+01    1.790560e+00
  1.646713e+01    1.776129e+00
  1.657826e+01    1.754181e+00
  1.668938e+01    1.717011e+00
  1.680051e+01    1.728405e+00
  1.691164e+01    1.710278e+00
  1.702277e+01    1.696930e+00
  1.713390e+01    1.674251e+00
  1.724503e+01    1.627025e+00
  1.735616e+01    1.620713e+00
  1.746729e+01    1.612350e+00
  1.757842e+01    1.575946e+00
  1.768955e+01    1.571638e+00
  1.780067e+01    1.533229e+00
  1.791180e+01    1.549051e+00
  1.802293e+01    1.510207e+00
  1.813406e+01    1.491361e+00
  1.824519e+01    1.488001e+00
  1.835632e+01    1.481154e+00
  1.846745e+01    1.438360e+00
  1.857858e+01    1.439898e+00
  1.868971e+01    1.395404e+00
  1.880084e+01    1.394888e+00
  1.891196e+01    1.385061e+00
  1.902309e+01    1.379504e+00
  1.913422e+01    1.364259e+00
  1.924535e+01    1.360723e+00
  1.935648e+01    1.374725e+00
  1.946761e+01    1.339380e+00
  1.957874e+01    1.342514e+00
  1.968987e+01    1.326979e+00
  1.980100e+01    1.310351e+00
  1.991213e+01    1.296092e+00
  2.002325e+01    1.269175e+00
  2.013438e+01    1.275850e+00
  2.024551e+01    1.252635e+00
  2.035664e+01    1.269910e+00
  2.046777e+01    1.229897e+00
  2.057890e+01    1.240826e+00
  2.069003e+01    1.235657e+00
  2.080116e+01    1.249634e+00
  2.091229e+01    1.242103e+00
  2.102342e+01    1.248719e+00
  2.113455e+01    1.220482e+00
  2.124567e+01    1.259944e+00
  2.135680e+01    1.277738e+00
  2.146793e+01    1.363919e+00
  2.157906e+01    1.607393e+00
  2.169019e+01    2.567525e+00
  2.180132e+01    5.914487e+00
  2.191245e+01    8.857207e+00
  2.202358e+01    3.626861e+00
  2.213471e+01    1.856980e+00
  2.224584e+01    1.411408e+00
  2.235696e+01    1.259930e+00
  2.246809e+01    1.158285e+00
  2.257922e+01    1.109365e+00
  2.269035e+01    1.068441e+00
  2.280148e+01    1.046728e+00
  2.291261e+01    1.064958e+00
  2.302374e+01    1.034737e+00
  2.313487e+01    9.880709e-01
  2.324600e+01    9.856194e-01
  2.335713e+01    9.882257e-01
  2.346825e+01    9.623488e-01
  2.357938e+01    9.560301e-01
  2.369051e+01    9.558399e-01
  2.380164e+01    9.312491e-01
  2.391277e+01    9.165668e-01
  2.402390e+01    8.991744e-01
  2.413503e+01    8.750677e-01
  2.424616e+01    8.713764e-01
  2.435729e+01    8.900546e-01
  2.446842e+01    8.851720e-01
  2.457954e+01    8.965335e-01
  2.469067e+01    8.939095e-01
  2.480180e+01    8.920466e-01
  2.491293e+01    8.826563e-01
  2.502406e+01    8.966457e-01
  2.513519e+01    9.090587e-01
  2.524632e+01    9.132802e-01
  2.535745e+01    9.783996e-01
  2.546858e+01    1.043624e+00
  2.557971e+01    1.178730e+00
  2.569083e+01    1.520645e+00
  2.580196e+01    2.891260e+00
  2.591309e+01    6.427365e+00
  2.602422e+01    5.269496e+00
  2.613535e+01    2.138841e+00
  2.624648e+01    1.341695e+00
  2.635761e+01    1.086571e+00
  2.646874e+01    1.009948e+00
  2.657987e+01    9.756798e-01
  2.669100e+01    9.685377e-01
  2.680212e+01    9.773722e-01
  2.691325e+01    1.035633e+00
  2.702438e+01    1.149463e+00
  2.713551e+01    1.728267e+00
  2.724664e+01    2.112333e+00
  2.735777e+01    1.266246e+00
  2.746890e+01    1.013881e+00
  2.758003e+01    9.355705e-01
  2.769116e+01    9.158069e-01
  2.780229e+01    9.032169e-01
  2.791342e+01    8.683941e-01
  2.802454e+01    8.608758e-01
  2.813567e+01    8.578466e-01
  2.824680e+01    8.599996e-01
  2.835793e+01    8.422075e-01
  2.846906e+01    8.372526e-01
  2.858019e+01    8.350627e-01
  2.869132e+01    8.664004e-01
  2.880245e+01    8.247429e-01
  2.891358e+01    8.385676e-01
  2.902471e+01    8.106446e-01
  2.913583e+01    8.441029e-01
  2.924696e+01    8.042748e-01
  2.935809e+01    8.182733e-01
  2.946922e+01    8.003153e-01
  2.958035e+01    8.315715e-01
  2.969148e+01    7.793898e-01
  2.980261e+01    7.893549e-01
  2.991374e+01    7.823548e-01
  3.002487e+01    8.012953e-01
  3.013600e+01    7.875603e-01
  3.024712e+01    7.720364e-01
  3.035825e+01    7.935376e-01
  3.046938e+01    7.886984e-01
  3.058051e+01    7.865304e-01
  3.069164e+01    7.818533e-01
  3.080277e+01    7.877883e-01
  3.091390e+01    8.156715e-01
  3.102503e+01    7.858608e-01
  3.113616e+01    7.885295e-01
  3.124729e+01    7.882592e-01
  3.135841e+01    7.924320e-01
  3.146954e+01    8.202771e-01
  3.158067e+01    8.440735e-01
  3.169180e+01    9.844254e-01
  3.180293e+01    1.478468e+00
  3.191406e+01    2.095379e+00
  3.202519e+01    1.343072e+00
  3.213632e+01    9.412459e-01
  3.224745e+01    8.203770e-01
  3.235858e+01    7.872058e-01
  3.246970e+01    8.043922e-01
  3.254908e+01    7.827884e-01

File: 2024-07-27_003_Ru-CGO-ex_Reaction_dwell_000023_data_000085.dat
# == pyFAI calibration ==
# Distance Sample to Detector: 0.4 m
# PONI: 9.750e-02, 1.135e-01 m
# Rotations: -0.000175 0.000000 -0.000000 rad
#
# == Fit2d calibration ==
# Distance Sample-beamCenter: 400.000 mm
# Center: x=1514.000, y=1300.000 pix
# Tilt: 0.010 deg  TiltPlanRot: 0.010 deg
#
# Detector Detector	 Spline= None	 PixelSize= 7.500e-05, 7.500e-05 m
#    Detector has a mask: False
#    Detector has a dark current: False
#    detector has a flat field: False
#
# Wavelength: 6.888e-11 m
# Mask applied: user provided
# Dark current applied: False
# Flat field applied: False
# Polarization factor: 0.99
# Normalization factor: 1.0
# --> /home/myspot/data/2024_07_Rosario/Ru-CGO-ex/2024-07-27_003_Ru-CGO-ex_Reaction_dwell_000023_data_000085.dat
#       q_nm^-1             I
  2.003187e-02    0.000000e+00
  1.311609e-01    4.873809e-02
  2.422899e-01    5.395178e-02
  3.534189e-01    5.636749e-02
  4.645479e-01    4.051188e-02
  5.756770e-01    7.183904e-02
  6.868060e-01    3.360362e-02
  7.979350e-01    1.513788e-01
  9.090640e-01    6.386687e-01
  1.020193e+00    1.274625e+00
  1.131322e+00    1.624957e+00
  1.242451e+00    2.423664e+00
  1.353580e+00    2.709636e+00
  1.464709e+00    2.885679e+00
  1.575838e+00    3.272682e+00
  1.686967e+00    3.227563e+00
  1.798096e+00    2.915244e+00
  1.909225e+00    3.047549e+00
  2.020354e+00    3.068626e+00
  2.131483e+00    3.076499e+00
  2.242612e+00    3.111518e+00
  2.353741e+00    3.240252e+00
  2.464870e+00    3.317944e+00
  2.575999e+00    3.184397e+00
  2.687128e+00    3.256260e+00
  2.798257e+00    3.350736e+00
  2.909386e+00    3.348609e+00
  3.020515e+00    3.390805e+00
  3.131644e+00    3.308809e+00
  3.242773e+00    3.356679e+00
  3.353902e+00    3.390248e+00
  3.465031e+00    3.471144e+00
  3.576160e+00    3.513501e+00
  3.687289e+00    3.447413e+00
  3.798418e+00    3.532414e+00
  3.909547e+00    3.481897e+00
  4.020676e+00    3.561037e+00
  4.131806e+00    3.540363e+00
  4.242935e+00    3.597973e+00
  4.354064e+00    3.709379e+00
  4.465193e+00    3.573601e+00
  4.576322e+00    3.546899e+00
  4.687451e+00    3.668516e+00
  4.798580e+00    3.601025e+00
  4.909709e+00    3.665657e+00
  5.020838e+00    3.625375e+00
  5.131967e+00    3.596218e+00
  5.243096e+00    3.705513e+00
  5.354225e+00    3.645219e+00
  5.465354e+00    3.652393e+00
  5.576483e+00    3.580032e+00
  5.687612e+00    3.616897e+00
  5.798741e+00    3.569554e+00
  5.909870e+00    3.520733e+00
  6.020999e+00    3.428063e+00
  6.132128e+00    3.649880e+00
  6.243257e+00    3.469480e+00
  6.354386e+00    3.567609e+00
  6.465515e+00    3.548130e+00
  6.576644e+00    3.521387e+00
  6.687773e+00    3.567938e+00
  6.798902e+00    3.533388e+00
  6.910031e+00    3.467129e+00
  7.021160e+00    3.507287e+00
  7.132289e+00    3.463524e+00
  7.243418e+00    3.450576e+00
  7.354547e+00    3.444688e+00
  7.465676e+00    3.411257e+00
  7.576805e+00    3.438361e+00
  7.687934e+00    3.408174e+00
  7.799063e+00    3.379672e+00
  7.910192e+00    3.472494e+00
  8.021321e+00    3.450459e+00
  8.132450e+00    3.425178e+00
  8.243579e+00    3.454892e+00
  8.354708e+00    3.394975e+00
  8.465837e+00    3.399297e+00
  8.576966e+00    3.406638e+00
  8.688095e+00    3.349132e+00
  8.799224e+00    3.333813e+00
  8.910353e+00    3.323887e+00
  9.021482e+00    3.265020e+00
  9.132611e+00    3.293143e+00
  9.243740e+00    3.271243e+00
  9.354869e+00    3.279812e+00
  9.465998e+00    3.242492e+00
  9.577127e+00    3.232193e+00
  9.688256e+00    3.236313e+00
  9.799385e+00    3.222615e+00
  9.910514e+00    3.099220e+00
  1.002164e+01    3.161770e+00
  1.013277e+01    3.129443e+00
  1.024390e+01    3.085481e+00
  1.035503e+01    2.991396e+00
  1.046616e+01    3.052463e+00
  1.057729e+01    3.043386e+00
  1.068842e+01    2.945431e+00
  1.079955e+01    2.909092e+00
  1.091068e+01    2.935913e+00
  1.102180e+01    2.867496e+00
  1.113293e+01    2.896714e+00
  1.124406e+01    2.842659e+00
  1.135519e+01    2.802392e+00
  1.146632e+01    2.796845e+00
  1.157745e+01    2.814529e+00
  1.168858e+01    2.768584e+00
  1.179971e+01    2.719102e+00
  1.191084e+01    2.695002e+00
  1.202197e+01    2.694885e+00
  1.213309e+01    2.674669e+00
  1.224422e+01    2.681128e+00
  1.235535e+01    2.703230e+00
  1.246648e+01    2.712503e+00
  1.257761e+01    2.741850e+00
  1.268874e+01    2.791427e+00
  1.279987e+01    3.011657e+00
  1.291100e+01    3.711093e+00
  1.302213e+01    6.812336e+00
  1.313326e+01    1.497853e+01
  1.324438e+01    1.061704e+01
  1.335551e+01    4.419084e+00
  1.346664e+01    3.135982e+00
  1.357777e+01    2.716115e+00
  1.368890e+01    2.561558e+00
  1.380003e+01    2.413874e+00
  1.391116e+01    2.349208e+00
  1.402229e+01    2.335588e+00
  1.413342e+01    2.310184e+00
  1.424455e+01    2.308311e+00
  1.435568e+01    2.233408e+00
  1.446680e+01    2.238601e+00
  1.457793e+01    2.228926e+00
  1.468906e+01    2.183082e+00
  1.480019e+01    2.215908e+00
  1.491132e+01    2.235393e+00
  1.502245e+01    2.505181e+00
  1.513358e+01    3.773623e+00
  1.524471e+01    5.738137e+00
  1.535584e+01    3.714343e+00
  1.546697e+01    2.438266e+00
  1.557809e+01    2.140505e+00
  1.568922e+01    1.988176e+00
  1.580035e+01    1.951021e+00
  1.591148e+01    1.894860e+00
  1.602261e+01    1.861480e+00
  1.613374e+01    1.852565e+00
  1.624487e+01    1.835211e+00
  1.635600e+01    1.757997e+00
  1.646713e+01    1.751880e+00
  1.657826e+01    1.758978e+00
  1.668938e+01    1.720035e+00
  1.680051e+01    1.738609e+00
  1.691164e+01    1.694540e+00
  1.702277e+01    1.651696e+00
  1.713390e+01    1.664016e+00
  1.724503e+01    1.621630e+00
  1.735616e+01    1.609693e+00
  1.746729e+01    1.634808e+00
  1.757842e+01    1.558586e+00
  1.768955e+01    1.564188e+00
  1.780067e+01    1.546833e+00
  1.791180e+01    1.561401e+00
  1.802293e+01    1.520519e+00
  1.813406e+01    1.473178e+00
  1.824519e+01    1.453258e+00
  1.835632e+01    1.483814e+00
  1.846745e+01    1.461080e+00
  1.857858e+01    1.438042e+00
  1.868971e+01    1.445694e+00
  1.880084e+01    1.395480e+00
  1.891196e+01    1.386775e+00
  1.902309e+01    1.412643e+00
  1.913422e+01    1.367139e+00
  1.924535e+01    1.377545e+00
  1.935648e+01    1.382792e+00
  1.946761e+01    1.335523e+00
  1.957874e+01    1.340072e+00
  1.968987e+01    1.306753e+00
  1.980100e+01    1.285524e+00
  1.991213e+01    1.266052e+00
  2.002325e+01    1.277682e+00
  2.013438e+01    1.245134e+00
  2.024551e+01    1.275971e+00
  2.035664e+01    1.265487e+00
  2.046777e+01    1.230106e+00
  2.057890e+01    1.234361e+00
  2.069003e+01    1.234957e+00
  2.080116e+01    1.244103e+00
  2.091229e+01    1.237872e+00
  2.102342e+01    1.208280e+00
  2.113455e+01    1.256593e+00
  2.124567e+01    1.252216e+00
  2.135680e+01    1.282069e+00
  2.146793e+01    1.366711e+00
  2.157906e+01    1.616314e+00
  2.169019e+01    2.544409e+00
  2.180132e+01    5.958387e+00
  2.191245e+01    8.769185e+00
  2.202358e+01    3.594245e+00
  2.213471e+01    1.872859e+00
  2.224584e+01    1.409322e+00
  2.235696e+01    1.236980e+00
  2.246809e+01    1.168848e+00
  2.257922e+01    1.131383e+00
  2.269035e+01    1.073788e+00
  2.280148e+01    1.046341e+00
  2.291261e+01    1.036852e+00
  2.302374e+01    1.024388e+00
  2.313487e+01    1.002527e+00
  2.324600e+01    9.666470e-01
  2.335713e+01    9.916212e-01
  2.346825e+01    9.680071e-01
  2.357938e+01    9.500979e-01
  2.369051e+01    9.565354e-01
  2.380164e+01    9.199689e-01
  2.391277e+01    9.170584e-01
  2.402390e+01    8.944524e-01
  2.413503e+01    8.632355e-01
  2.424616e+01    8.789787e-01
  2.435729e+01    8.903763e-01
  2.446842e+01    9.024515e-01
  2.457954e+01    8.783464e-01
  2.469067e+01    9.069581e-01
  2.480180e+01    8.953435e-01
  2.491293e+01    8.800477e-01
  2.502406e+01    8.832785e-01
  2.513519e+01    9.113389e-01
  2.524632e+01    9.324752e-01
  2.535745e+01    9.969839e-01
  2.546858e+01    1.028499e+00
  2.557971e+01    1.153249e+00
  2.569083e+01    1.517539e+00
  2.580196e+01    2.880973e+00
  2.591309e+01    6.484789e+00
  2.602422e+01    5.260584e+00
  2.613535e+01    2.136859e+00
  2.624648e+01    1.334003e+00
  2.635761e+01    1.096497e+00
  2.646874e+01    1.014788e+00
  2.657987e+01    9.838759e-01
  2.669100e+01    9.685973e-01
  2.680212e+01    9.901977e-01
  2.691325e+01    1.022268e+00
  2.702438e+01    1.136027e+00
  2.713551e+01    1.733025e+00
  2.724664e+01    2.069561e+00
  2.735777e+01    1.277528e+00
  2.746890e+01    1.048216e+00
  2.758003e+01    9.372401e-01
  2.769116e+01    8.939752e-01
  2.780229e+01    8.899714e-01
  2.791342e+01    8.858661e-01
  2.802454e+01    8.750536e-01
  2.813567e+01    8.630934e-01
  2.824680e+01    8.436355e-01
  2.835793e+01    8.446149e-01
  2.846906e+01    8.438299e-01
  2.858019e+01    8.524804e-01
  2.869132e+01    8.442093e-01
  2.880245e+01    8.291902e-01
  2.891358e+01    8.149225e-01
  2.902471e+01    8.280613e-01
  2.913583e+01    8.159435e-01
  2.924696e+01    8.152935e-01
  2.935809e+01    7.831352e-01
  2.946922e+01    7.783244e-01
  2.958035e+01    8.069688e-01
  2.969148e+01    8.055917e-01
  2.980261e+01    8.028766e-01
  2.991374e+01    7.982302e-01
  3.002487e+01    8.127645e-01
  3.013600e+01    7.904167e-01
  3.024712e+01    7.966204e-01
  3.035825e+01    8.051705e-01
  3.046938e+01    7.740473e-01
  3.058051e+01    7.803843e-01
  3.069164e+01    7.786450e-01
  3.080277e+01    7.822395e-01
  3.091390e+01    7.913705e-01
  3.102503e+01    7.944242e-01
  3.113616e+01    8.066059e-01
  3.124729e+01    8.045626e-01
  3.135841e+01    7.594647e-01
  3.146954e+01    8.349686e-01
  3.158067e+01    8.803633e-01
  3.169180e+01    1.003996e+00
  3.180293e+01    1.527917e+00
  3.191406e+01    2.085680e+00
  3.202519e+01    1.294077e+00
  3.213632e+01    9.543838e-01
  3.224745e+01    8.579381e-01
  3.235858e+01    8.072243e-01
  3.246970e+01    7.692114e-01
  3.254908e+01    8.051506e-01