Folder: myspot_2024_07/XRD/Reaction conditions (part 26)

File: 2024-07-27_003_Ru-CGO-ex_Reaction_dwell_000023_data_000065.dat
# == pyFAI calibration ==
# Distance Sample to Detector: 0.4 m
# PONI: 9.750e-02, 1.135e-01 m
# Rotations: -0.000175 0.000000 -0.000000 rad
#
# == Fit2d calibration ==
# Distance Sample-beamCenter: 400.000 mm
# Center: x=1514.000, y=1300.000 pix
# Tilt: 0.010 deg  TiltPlanRot: 0.010 deg
#
# Detector Detector	 Spline= None	 PixelSize= 7.500e-05, 7.500e-05 m
#    Detector has a mask: False
#    Detector has a dark current: False
#    detector has a flat field: False
#
# Wavelength: 6.888e-11 m
# Mask applied: user provided
# Dark current applied: False
# Flat field applied: False
# Polarization factor: 0.99
# Normalization factor: 1.0
# --> /home/myspot/data/2024_07_Rosario/Ru-CGO-ex/2024-07-27_003_Ru-CGO-ex_Reaction_dwell_000023_data_000065.dat
#       q_nm^-1             I
  2.003187e-02    0.000000e+00
  1.311609e-01    2.715243e-02
  2.422899e-01    2.255077e-02
  3.534189e-01    6.301333e-02
  4.645479e-01    6.144942e-02
  5.756770e-01    2.104996e-02
  6.868060e-01    3.329689e-02
  7.979350e-01    1.543559e-01
  9.090640e-01    6.416314e-01
  1.020193e+00    1.187685e+00
  1.131322e+00    1.673413e+00
  1.242451e+00    2.309882e+00
  1.353580e+00    2.875166e+00
  1.464709e+00    2.894609e+00
  1.575838e+00    3.070707e+00
  1.686967e+00    3.068730e+00
  1.798096e+00    3.114731e+00
  1.909225e+00    3.051225e+00
  2.020354e+00    3.003300e+00
  2.131483e+00    3.240645e+00
  2.242612e+00    3.265597e+00
  2.353741e+00    3.270737e+00
  2.464870e+00    3.193184e+00
  2.575999e+00    3.270238e+00
  2.687128e+00    3.330353e+00
  2.798257e+00    3.196640e+00
  2.909386e+00    3.384020e+00
  3.020515e+00    3.231006e+00
  3.131644e+00    3.391989e+00
  3.242773e+00    3.413718e+00
  3.353902e+00    3.507236e+00
  3.465031e+00    3.396616e+00
  3.576160e+00    3.502993e+00
  3.687289e+00    3.505893e+00
  3.798418e+00    3.572750e+00
  3.909547e+00    3.525259e+00
  4.020676e+00    3.482044e+00
  4.131806e+00    3.510123e+00
  4.242935e+00    3.553015e+00
  4.354064e+00    3.605110e+00
  4.465193e+00    3.554880e+00
  4.576322e+00    3.693935e+00
  4.687451e+00    3.661385e+00
  4.798580e+00    3.555037e+00
  4.909709e+00    3.693474e+00
  5.020838e+00    3.617907e+00
  5.131967e+00    3.673825e+00
  5.243096e+00    3.632388e+00
  5.354225e+00    3.628078e+00
  5.465354e+00    3.582086e+00
  5.576483e+00    3.613221e+00
  5.687612e+00    3.574139e+00
  5.798741e+00    3.609033e+00
  5.909870e+00    3.600901e+00
  6.020999e+00    3.529828e+00
  6.132128e+00    3.580867e+00
  6.243257e+00    3.599109e+00
  6.354386e+00    3.614406e+00
  6.465515e+00    3.523782e+00
  6.576644e+00    3.475420e+00
  6.687773e+00    3.552952e+00
  6.798902e+00    3.598150e+00
  6.910031e+00    3.519707e+00
  7.021160e+00    3.496687e+00
  7.132289e+00    3.556315e+00
  7.243418e+00    3.526078e+00
  7.354547e+00    3.601434e+00
  7.465676e+00    3.511438e+00
  7.576805e+00    3.449850e+00
  7.687934e+00    3.468685e+00
  7.799063e+00    3.472384e+00
  7.910192e+00    3.467768e+00
  8.021321e+00    3.460980e+00
  8.132450e+00    3.396837e+00
  8.243579e+00    3.486529e+00
  8.354708e+00    3.413338e+00
  8.465837e+00    3.342781e+00
  8.576966e+00    3.395262e+00
  8.688095e+00    3.283710e+00
  8.799224e+00    3.347812e+00
  8.910353e+00    3.388670e+00
  9.021482e+00    3.243322e+00
  9.132611e+00    3.226628e+00
  9.243740e+00    3.303501e+00
  9.354869e+00    3.252209e+00
  9.465998e+00    3.190206e+00
  9.577127e+00    3.254341e+00
  9.688256e+00    3.235802e+00
  9.799385e+00    3.160577e+00
  9.910514e+00    3.121059e+00
  1.002164e+01    3.142170e+00
  1.013277e+01    3.084234e+00
  1.024390e+01    3.122610e+00
  1.035503e+01    3.131936e+00
  1.046616e+01    3.033646e+00
  1.057729e+01    2.996488e+00
  1.068842e+01    2.993540e+00
  1.079955e+01    2.970439e+00
  1.091068e+01    2.944231e+00
  1.102180e+01    2.931973e+00
  1.113293e+01    2.892034e+00
  1.124406e+01    2.841048e+00
  1.135519e+01    2.892998e+00
  1.146632e+01    2.809561e+00
  1.157745e+01    2.777182e+00
  1.168858e+01    2.743849e+00
  1.179971e+01    2.793812e+00
  1.191084e+01    2.729648e+00
  1.202197e+01    2.733443e+00
  1.213309e+01    2.713648e+00
  1.224422e+01    2.752728e+00
  1.235535e+01    2.734019e+00
  1.246648e+01    2.666428e+00
  1.257761e+01    2.764877e+00
  1.268874e+01    2.782487e+00
  1.279987e+01    3.066055e+00
  1.291100e+01    3.693223e+00
  1.302213e+01    6.685676e+00
  1.313326e+01    1.492740e+01
  1.324438e+01    1.075886e+01
  1.335551e+01    4.456033e+00
  1.346664e+01    3.147595e+00
  1.357777e+01    2.775663e+00
  1.368890e+01    2.558862e+00
  1.380003e+01    2.456407e+00
  1.391116e+01    2.385824e+00
  1.402229e+01    2.360307e+00
  1.413342e+01    2.342490e+00
  1.424455e+01    2.304177e+00
  1.435568e+01    2.236211e+00
  1.446680e+01    2.241300e+00
  1.457793e+01    2.241208e+00
  1.468906e+01    2.195097e+00
  1.480019e+01    2.185528e+00
  1.491132e+01    2.292331e+00
  1.502245e+01    2.536965e+00
  1.513358e+01    3.796333e+00
  1.524471e+01    5.764499e+00
  1.535584e+01    3.831602e+00
  1.546697e+01    2.494514e+00
  1.557809e+01    2.115251e+00
  1.568922e+01    1.961337e+00
  1.580035e+01    1.924990e+00
  1.591148e+01    1.872519e+00
  1.602261e+01    1.868672e+00
  1.613374e+01    1.836872e+00
  1.624487e+01    1.834563e+00
  1.635600e+01    1.804083e+00
  1.646713e+01    1.789799e+00
  1.657826e+01    1.747002e+00
  1.668938e+01    1.695904e+00
  1.680051e+01    1.721339e+00
  1.691164e+01    1.661741e+00
  1.702277e+01    1.703639e+00
  1.713390e+01    1.635835e+00
  1.724503e+01    1.664080e+00
  1.735616e+01    1.605085e+00
  1.746729e+01    1.575455e+00
  1.757842e+01    1.597873e+00
  1.768955e+01    1.530019e+00
  1.780067e+01    1.556477e+00
  1.791180e+01    1.541579e+00
  1.802293e+01    1.487901e+00
  1.813406e+01    1.494138e+00
  1.824519e+01    1.493590e+00
  1.835632e+01    1.449166e+00
  1.846745e+01    1.422059e+00
  1.857858e+01    1.461845e+00
  1.868971e+01    1.421458e+00
  1.880084e+01    1.398135e+00
  1.891196e+01    1.377312e+00
  1.902309e+01    1.392611e+00
  1.913422e+01    1.364547e+00
  1.924535e+01    1.346429e+00
  1.935648e+01    1.322022e+00
  1.946761e+01    1.311166e+00
  1.957874e+01    1.310165e+00
  1.968987e+01    1.325558e+00
  1.980100e+01    1.316705e+00
  1.991213e+01    1.333610e+00
  2.002325e+01    1.277948e+00
  2.013438e+01    1.266217e+00
  2.024551e+01    1.258891e+00
  2.035664e+01    1.254998e+00
  2.046777e+01    1.251859e+00
  2.057890e+01    1.246576e+00
  2.069003e+01    1.226929e+00
  2.080116e+01    1.237856e+00
  2.091229e+01    1.227490e+00
  2.102342e+01    1.227366e+00
  2.113455e+01    1.237824e+00
  2.124567e+01    1.262890e+00
  2.135680e+01    1.288673e+00
  2.146793e+01    1.385494e+00
  2.157906e+01    1.605397e+00
  2.169019e+01    2.515773e+00
  2.180132e+01    5.861228e+00
  2.191245e+01    8.828361e+00
  2.202358e+01    3.650076e+00
  2.213471e+01    1.846379e+00
  2.224584e+01    1.420092e+00
  2.235696e+01    1.262792e+00
  2.246809e+01    1.173976e+00
  2.257922e+01    1.130502e+00
  2.269035e+01    1.092290e+00
  2.280148e+01    1.052848e+00
  2.291261e+01    1.043768e+00
  2.302374e+01    1.017522e+00
  2.313487e+01    1.008213e+00
  2.324600e+01    9.842751e-01
  2.335713e+01    9.799439e-01
  2.346825e+01    9.751024e-01
  2.357938e+01    9.737047e-01
  2.369051e+01    9.356084e-01
  2.380164e+01    9.454961e-01
  2.391277e+01    9.186185e-01
  2.402390e+01    8.988593e-01
  2.413503e+01    8.800384e-01
  2.424616e+01    9.097074e-01
  2.435729e+01    8.926192e-01
  2.446842e+01    9.071930e-01
  2.457954e+01    9.098539e-01
  2.469067e+01    8.992221e-01
  2.480180e+01    8.934052e-01
  2.491293e+01    8.987521e-01
  2.502406e+01    8.989662e-01
  2.513519e+01    9.109948e-01
  2.524632e+01    9.350426e-01
  2.535745e+01    9.547436e-01
  2.546858e+01    1.049489e+00
  2.557971e+01    1.158840e+00
  2.569083e+01    1.520794e+00
  2.580196e+01    2.814326e+00
  2.591309e+01    6.328944e+00
  2.602422e+01    5.315310e+00
  2.613535e+01    2.168079e+00
  2.624648e+01    1.351788e+00
  2.635761e+01    1.113545e+00
  2.646874e+01    1.017639e+00
  2.657987e+01    9.850913e-01
  2.669100e+01    9.642810e-01
  2.680212e+01    9.650931e-01
  2.691325e+01    1.016694e+00
  2.702438e+01    1.162864e+00
  2.713551e+01    1.721312e+00
  2.724664e+01    2.101366e+00
  2.735777e+01    1.288863e+00
  2.746890e+01    1.022257e+00
  2.758003e+01    9.474649e-01
  2.769116e+01    9.037260e-01
  2.780229e+01    8.811661e-01
  2.791342e+01    8.642038e-01
  2.802454e+01    8.623510e-01
  2.813567e+01    8.532200e-01
  2.824680e+01    8.737758e-01
  2.835793e+01    8.370248e-01
  2.846906e+01    8.386953e-01
  2.858019e+01    8.384241e-01
  2.869132e+01    8.331804e-01
  2.880245e+01    8.245087e-01
  2.891358e+01    8.188661e-01
  2.902471e+01    8.255939e-01
  2.913583e+01    8.383100e-01
  2.924696e+01    8.163248e-01
  2.935809e+01    8.128167e-01
  2.946922e+01    8.097076e-01
  2.958035e+01    8.050669e-01
  2.969148e+01    8.007096e-01
  2.980261e+01    8.052324e-01
  2.991374e+01    8.060239e-01
  3.002487e+01    7.934039e-01
  3.013600e+01    8.026848e-01
  3.024712e+01    7.848291e-01
  3.035825e+01    7.878054e-01
  3.046938e+01    7.830098e-01
  3.058051e+01    7.593822e-01
  3.069164e+01    7.894705e-01
  3.080277e+01    7.993557e-01
  3.091390e+01    7.728398e-01
  3.102503e+01    7.804142e-01
  3.113616e+01    8.141344e-01
  3.124729e+01    7.912233e-01
  3.135841e+01    7.892650e-01
  3.146954e+01    8.180249e-01
  3.158067e+01    8.391331e-01
  3.169180e+01    9.910421e-01
  3.180293e+01    1.442491e+00
  3.191406e+01    2.087067e+00
  3.202519e+01    1.316905e+00
  3.213632e+01    9.799801e-01
  3.224745e+01    8.317925e-01
  3.235858e+01    8.092762e-01
  3.246970e+01    7.749817e-01
  3.254908e+01    7.794672e-01

File: 2024-07-27_003_Ru-CGO-ex_Reaction_dwell_000023_data_000066.dat
# == pyFAI calibration ==
# Distance Sample to Detector: 0.4 m
# PONI: 9.750e-02, 1.135e-01 m
# Rotations: -0.000175 0.000000 -0.000000 rad
#
# == Fit2d calibration ==
# Distance Sample-beamCenter: 400.000 mm
# Center: x=1514.000, y=1300.000 pix
# Tilt: 0.010 deg  TiltPlanRot: 0.010 deg
#
# Detector Detector	 Spline= None	 PixelSize= 7.500e-05, 7.500e-05 m
#    Detector has a mask: False
#    Detector has a dark current: False
#    detector has a flat field: False
#
# Wavelength: 6.888e-11 m
# Mask applied: user provided
# Dark current applied: False
# Flat field applied: False
# Polarization factor: 0.99
# Normalization factor: 1.0
# --> /home/myspot/data/2024_07_Rosario/Ru-CGO-ex/2024-07-27_003_Ru-CGO-ex_Reaction_dwell_000023_data_000066.dat
#       q_nm^-1             I
  2.003187e-02    0.000000e+00
  1.311609e-01    6.316211e-03
  2.422899e-01    5.436834e-02
  3.534189e-01    2.935961e-02
  4.645479e-01    6.157523e-02
  5.756770e-01    3.224247e-02
  6.868060e-01    5.465668e-02
  7.979350e-01    1.518581e-01
  9.090640e-01    5.863137e-01
  1.020193e+00    1.305369e+00
  1.131322e+00    1.590675e+00
  1.242451e+00    2.240571e+00
  1.353580e+00    2.734644e+00
  1.464709e+00    3.093859e+00
  1.575838e+00    3.175115e+00
  1.686967e+00    3.113594e+00
  1.798096e+00    3.160774e+00
  1.909225e+00    3.006958e+00
  2.020354e+00    3.075420e+00
  2.131483e+00    3.059561e+00
  2.242612e+00    3.119181e+00
  2.353741e+00    3.154197e+00
  2.464870e+00    3.129991e+00
  2.575999e+00    3.159417e+00
  2.687128e+00    3.284271e+00
  2.798257e+00    3.417767e+00
  2.909386e+00    3.288081e+00
  3.020515e+00    3.420438e+00
  3.131644e+00    3.312516e+00
  3.242773e+00    3.364144e+00
  3.353902e+00    3.451835e+00
  3.465031e+00    3.485331e+00
  3.576160e+00    3.316447e+00
  3.687289e+00    3.518929e+00
  3.798418e+00    3.465159e+00
  3.909547e+00    3.455230e+00
  4.020676e+00    3.529781e+00
  4.131806e+00    3.469695e+00
  4.242935e+00    3.586193e+00
  4.354064e+00    3.548245e+00
  4.465193e+00    3.649220e+00
  4.576322e+00    3.706746e+00
  4.687451e+00    3.604774e+00
  4.798580e+00    3.643293e+00
  4.909709e+00    3.626701e+00
  5.020838e+00    3.669886e+00
  5.131967e+00    3.692711e+00
  5.243096e+00    3.659159e+00
  5.354225e+00    3.733230e+00
  5.465354e+00    3.560465e+00
  5.576483e+00    3.524530e+00
  5.687612e+00    3.598177e+00
  5.798741e+00    3.483061e+00
  5.909870e+00    3.518304e+00
  6.020999e+00    3.506489e+00
  6.132128e+00    3.635256e+00
  6.243257e+00    3.578969e+00
  6.354386e+00    3.564088e+00
  6.465515e+00    3.537434e+00
  6.576644e+00    3.659338e+00
  6.687773e+00    3.560925e+00
  6.798902e+00    3.550831e+00
  6.910031e+00    3.614524e+00
  7.021160e+00    3.461647e+00
  7.132289e+00    3.571776e+00
  7.243418e+00    3.512867e+00
  7.354547e+00    3.548882e+00
  7.465676e+00    3.477210e+00
  7.576805e+00    3.549866e+00
  7.687934e+00    3.485433e+00
  7.799063e+00    3.430925e+00
  7.910192e+00    3.439878e+00
  8.021321e+00    3.354603e+00
  8.132450e+00    3.471743e+00
  8.243579e+00    3.490146e+00
  8.354708e+00    3.388994e+00
  8.465837e+00    3.396796e+00
  8.576966e+00    3.345851e+00
  8.688095e+00    3.346050e+00
  8.799224e+00    3.337091e+00
  8.910353e+00    3.283220e+00
  9.021482e+00    3.281708e+00
  9.132611e+00    3.211973e+00
  9.243740e+00    3.268778e+00
  9.354869e+00    3.259563e+00
  9.465998e+00    3.267057e+00
  9.577127e+00    3.157546e+00
  9.688256e+00    3.245271e+00
  9.799385e+00    3.079800e+00
  9.910514e+00    3.096272e+00
  1.002164e+01    3.086686e+00
  1.013277e+01    3.062443e+00
  1.024390e+01    3.020442e+00
  1.035503e+01    3.008561e+00
  1.046616e+01    3.028310e+00
  1.057729e+01    3.059836e+00
  1.068842e+01    3.020098e+00
  1.079955e+01    2.988625e+00
  1.091068e+01    2.935850e+00
  1.102180e+01    2.932657e+00
  1.113293e+01    2.871685e+00
  1.124406e+01    2.931323e+00
  1.135519e+01    2.818126e+00
  1.146632e+01    2.810237e+00
  1.157745e+01    2.832796e+00
  1.168858e+01    2.801779e+00
  1.179971e+01    2.764386e+00
  1.191084e+01    2.753805e+00
  1.202197e+01    2.711105e+00
  1.213309e+01    2.709409e+00
  1.224422e+01    2.679236e+00
  1.235535e+01    2.718361e+00
  1.246648e+01    2.699470e+00
  1.257761e+01    2.688088e+00
  1.268874e+01    2.772845e+00
  1.279987e+01    3.018333e+00
  1.291100e+01    3.651144e+00
  1.302213e+01    6.720443e+00
  1.313326e+01    1.473905e+01
  1.324438e+01    1.067268e+01
  1.335551e+01    4.392523e+00
  1.346664e+01    3.121216e+00
  1.357777e+01    2.704964e+00
  1.368890e+01    2.599774e+00
  1.380003e+01    2.432706e+00
  1.391116e+01    2.409880e+00
  1.402229e+01    2.349698e+00
  1.413342e+01    2.357110e+00
  1.424455e+01    2.309075e+00
  1.435568e+01    2.262768e+00
  1.446680e+01    2.213160e+00
  1.457793e+01    2.180276e+00
  1.468906e+01    2.218659e+00
  1.480019e+01    2.185190e+00
  1.491132e+01    2.255876e+00
  1.502245e+01    2.457813e+00
  1.513358e+01    3.768499e+00
  1.524471e+01    5.732487e+00
  1.535584e+01    3.760189e+00
  1.546697e+01    2.479306e+00
  1.557809e+01    2.110342e+00
  1.568922e+01    1.966786e+00
  1.580035e+01    1.941824e+00
  1.591148e+01    1.885581e+00
  1.602261e+01    1.875406e+00
  1.613374e+01    1.836701e+00
  1.624487e+01    1.832489e+00
  1.635600e+01    1.819376e+00
  1.646713e+01    1.774888e+00
  1.657826e+01    1.705618e+00
  1.668938e+01    1.710291e+00
  1.680051e+01    1.715198e+00
  1.691164e+01    1.682849e+00
  1.702277e+01    1.679333e+00
  1.713390e+01    1.661654e+00
  1.724503e+01    1.630453e+00
  1.735616e+01    1.630343e+00
  1.746729e+01    1.586444e+00
  1.757842e+01    1.582120e+00
  1.768955e+01    1.548238e+00
  1.780067e+01    1.530211e+00
  1.791180e+01    1.516303e+00
  1.802293e+01    1.491325e+00
  1.813406e+01    1.495561e+00
  1.824519e+01    1.487950e+00
  1.835632e+01    1.463998e+00
  1.846745e+01    1.452820e+00
  1.857858e+01    1.416527e+00
  1.868971e+01    1.443240e+00
  1.880084e+01    1.430555e+00
  1.891196e+01    1.388602e+00
  1.902309e+01    1.354374e+00
  1.913422e+01    1.393868e+00
  1.924535e+01    1.342223e+00
  1.935648e+01    1.355013e+00
  1.946761e+01    1.331937e+00
  1.957874e+01    1.337357e+00
  1.968987e+01    1.322399e+00
  1.980100e+01    1.262597e+00
  1.991213e+01    1.282165e+00
  2.002325e+01    1.255653e+00
  2.013438e+01    1.270107e+00
  2.024551e+01    1.274169e+00
  2.035664e+01    1.264846e+00
  2.046777e+01    1.248496e+00
  2.057890e+01    1.229880e+00
  2.069003e+01    1.240282e+00
  2.080116e+01    1.216377e+00
  2.091229e+01    1.216394e+00
  2.102342e+01    1.224725e+00
  2.113455e+01    1.246112e+00
  2.124567e+01    1.269776e+00
  2.135680e+01    1.291198e+00
  2.146793e+01    1.383471e+00
  2.157906e+01    1.618660e+00
  2.169019e+01    2.484646e+00
  2.180132e+01    5.785217e+00
  2.191245e+01    8.795408e+00
  2.202358e+01    3.567504e+00
  2.213471e+01    1.853251e+00
  2.224584e+01    1.402854e+00
  2.235696e+01    1.258791e+00
  2.246809e+01    1.161263e+00
  2.257922e+01    1.110518e+00
  2.269035e+01    1.081330e+00
  2.280148e+01    1.090946e+00
  2.291261e+01    1.018625e+00
  2.302374e+01    1.040170e+00
  2.313487e+01    9.941032e-01
  2.324600e+01    9.875394e-01
  2.335713e+01    9.823997e-01
  2.346825e+01    9.894768e-01
  2.357938e+01    9.446258e-01
  2.369051e+01    9.301364e-01
  2.380164e+01    9.206543e-01
  2.391277e+01    9.224678e-01
  2.402390e+01    9.044148e-01
  2.413503e+01    9.074185e-01
  2.424616e+01    8.990737e-01
  2.435729e+01    9.135857e-01
  2.446842e+01    8.874331e-01
  2.457954e+01    8.891621e-01
  2.469067e+01    9.059632e-01
  2.480180e+01    8.812657e-01
  2.491293e+01    9.027402e-01
  2.502406e+01    8.993447e-01
  2.513519e+01    9.106205e-01
  2.524632e+01    9.441969e-01
  2.535745e+01    9.900405e-01
  2.546858e+01    1.031051e+00
  2.557971e+01    1.142591e+00
  2.569083e+01    1.484358e+00
  2.580196e+01    2.840973e+00
  2.591309e+01    6.357234e+00
  2.602422e+01    5.234231e+00
  2.613535e+01    2.119519e+00
  2.624648e+01    1.333626e+00
  2.635761e+01    1.108657e+00
  2.646874e+01    1.030999e+00
  2.657987e+01    9.708731e-01
  2.669100e+01    9.756605e-01
  2.680212e+01    9.618226e-01
  2.691325e+01    1.027730e+00
  2.702438e+01    1.161703e+00
  2.713551e+01    1.736290e+00
  2.724664e+01    2.102124e+00
  2.735777e+01    1.281954e+00
  2.746890e+01    9.929952e-01
  2.758003e+01    9.306058e-01
  2.769116e+01    8.958256e-01
  2.780229e+01    8.890356e-01
  2.791342e+01    8.711594e-01
  2.802454e+01    8.734224e-01
  2.813567e+01    8.725686e-01
  2.824680e+01    8.426676e-01
  2.835793e+01    8.383815e-01
  2.846906e+01    8.159762e-01
  2.858019e+01    8.479369e-01
  2.869132e+01    8.314213e-01
  2.880245e+01    7.890716e-01
  2.891358e+01    8.218400e-01
  2.902471e+01    8.277858e-01
  2.913583e+01    8.204817e-01
  2.924696e+01    8.103470e-01
  2.935809e+01    8.100266e-01
  2.946922e+01    8.000948e-01
  2.958035e+01    7.990911e-01
  2.969148e+01    8.007536e-01
  2.980261e+01    8.125541e-01
  2.991374e+01    7.858796e-01
  3.002487e+01    8.316545e-01
  3.013600e+01    8.061023e-01
  3.024712e+01    7.840281e-01
  3.035825e+01    7.838965e-01
  3.046938e+01    7.776293e-01
  3.058051e+01    7.931314e-01
  3.069164e+01    7.948712e-01
  3.080277e+01    7.987390e-01
  3.091390e+01    7.963765e-01
  3.102503e+01    7.953405e-01
  3.113616e+01    7.968214e-01
  3.124729e+01    7.824174e-01
  3.135841e+01    8.055495e-01
  3.146954e+01    8.325161e-01
  3.158067e+01    8.577653e-01
  3.169180e+01    1.004060e+00
  3.180293e+01    1.441859e+00
  3.191406e+01    2.079883e+00
  3.202519e+01    1.322637e+00
  3.213632e+01    9.524910e-01
  3.224745e+01    8.280579e-01
  3.235858e+01    8.030566e-01
  3.246970e+01    7.898795e-01
  3.254908e+01    8.026791e-01