Folder: myspot_2024_07/XRD/Reaction conditions (part 29)

File: 2024-07-27_003_Ru-CGO-ex_Reaction_dwell_000023_data_000076.dat
# == pyFAI calibration ==
# Distance Sample to Detector: 0.4 m
# PONI: 9.750e-02, 1.135e-01 m
# Rotations: -0.000175 0.000000 -0.000000 rad
#
# == Fit2d calibration ==
# Distance Sample-beamCenter: 400.000 mm
# Center: x=1514.000, y=1300.000 pix
# Tilt: 0.010 deg  TiltPlanRot: 0.010 deg
#
# Detector Detector	 Spline= None	 PixelSize= 7.500e-05, 7.500e-05 m
#    Detector has a mask: False
#    Detector has a dark current: False
#    detector has a flat field: False
#
# Wavelength: 6.888e-11 m
# Mask applied: user provided
# Dark current applied: False
# Flat field applied: False
# Polarization factor: 0.99
# Normalization factor: 1.0
# --> /home/myspot/data/2024_07_Rosario/Ru-CGO-ex/2024-07-27_003_Ru-CGO-ex_Reaction_dwell_000023_data_000076.dat
#       q_nm^-1             I
  2.003187e-02    0.000000e+00
  1.311609e-01    1.349541e-01
  2.422899e-01    6.001493e-02
  3.534189e-01    1.268351e-02
  4.645479e-01    1.871636e-02
  5.756770e-01    2.460982e-02
  6.868060e-01    2.740252e-02
  7.979350e-01    1.474085e-01
  9.090640e-01    7.248278e-01
  1.020193e+00    1.280390e+00
  1.131322e+00    1.582570e+00
  1.242451e+00    2.551631e+00
  1.353580e+00    2.732830e+00
  1.464709e+00    3.120539e+00
  1.575838e+00    3.129312e+00
  1.686967e+00    3.130801e+00
  1.798096e+00    3.306163e+00
  1.909225e+00    3.124572e+00
  2.020354e+00    3.107859e+00
  2.131483e+00    3.202717e+00
  2.242612e+00    3.199986e+00
  2.353741e+00    3.250092e+00
  2.464870e+00    3.204231e+00
  2.575999e+00    3.263192e+00
  2.687128e+00    3.241903e+00
  2.798257e+00    3.364385e+00
  2.909386e+00    3.301283e+00
  3.020515e+00    3.250580e+00
  3.131644e+00    3.426896e+00
  3.242773e+00    3.378851e+00
  3.353902e+00    3.515225e+00
  3.465031e+00    3.475274e+00
  3.576160e+00    3.459061e+00
  3.687289e+00    3.461318e+00
  3.798418e+00    3.414804e+00
  3.909547e+00    3.581001e+00
  4.020676e+00    3.622591e+00
  4.131806e+00    3.551922e+00
  4.242935e+00    3.575629e+00
  4.354064e+00    3.563215e+00
  4.465193e+00    3.706391e+00
  4.576322e+00    3.603529e+00
  4.687451e+00    3.577470e+00
  4.798580e+00    3.593102e+00
  4.909709e+00    3.626688e+00
  5.020838e+00    3.668436e+00
  5.131967e+00    3.685411e+00
  5.243096e+00    3.641454e+00
  5.354225e+00    3.700715e+00
  5.465354e+00    3.529687e+00
  5.576483e+00    3.624881e+00
  5.687612e+00    3.599930e+00
  5.798741e+00    3.567414e+00
  5.909870e+00    3.629779e+00
  6.020999e+00    3.531817e+00
  6.132128e+00    3.725059e+00
  6.243257e+00    3.538201e+00
  6.354386e+00    3.535934e+00
  6.465515e+00    3.597680e+00
  6.576644e+00    3.532709e+00
  6.687773e+00    3.596968e+00
  6.798902e+00    3.587686e+00
  6.910031e+00    3.573696e+00
  7.021160e+00    3.536495e+00
  7.132289e+00    3.531662e+00
  7.243418e+00    3.519032e+00
  7.354547e+00    3.519465e+00
  7.465676e+00    3.462228e+00
  7.576805e+00    3.544775e+00
  7.687934e+00    3.465956e+00
  7.799063e+00    3.493680e+00
  7.910192e+00    3.453071e+00
  8.021321e+00    3.440598e+00
  8.132450e+00    3.517962e+00
  8.243579e+00    3.449457e+00
  8.354708e+00    3.421660e+00
  8.465837e+00    3.454695e+00
  8.576966e+00    3.392983e+00
  8.688095e+00    3.411948e+00
  8.799224e+00    3.332380e+00
  8.910353e+00    3.360156e+00
  9.021482e+00    3.309016e+00
  9.132611e+00    3.311680e+00
  9.243740e+00    3.226395e+00
  9.354869e+00    3.232102e+00
  9.465998e+00    3.251592e+00
  9.577127e+00    3.243617e+00
  9.688256e+00    3.170521e+00
  9.799385e+00    3.099356e+00
  9.910514e+00    3.151233e+00
  1.002164e+01    3.136793e+00
  1.013277e+01    3.125569e+00
  1.024390e+01    3.084227e+00
  1.035503e+01    3.053655e+00
  1.046616e+01    3.025457e+00
  1.057729e+01    2.931577e+00
  1.068842e+01    2.978158e+00
  1.079955e+01    2.980047e+00
  1.091068e+01    2.961173e+00
  1.102180e+01    2.917024e+00
  1.113293e+01    2.874310e+00
  1.124406e+01    2.893493e+00
  1.135519e+01    2.820966e+00
  1.146632e+01    2.798371e+00
  1.157745e+01    2.796432e+00
  1.168858e+01    2.811796e+00
  1.179971e+01    2.775322e+00
  1.191084e+01    2.769559e+00
  1.202197e+01    2.696235e+00
  1.213309e+01    2.700853e+00
  1.224422e+01    2.666027e+00
  1.235535e+01    2.698032e+00
  1.246648e+01    2.723778e+00
  1.257761e+01    2.762382e+00
  1.268874e+01    2.822197e+00
  1.279987e+01    3.034772e+00
  1.291100e+01    3.721915e+00
  1.302213e+01    6.835502e+00
  1.313326e+01    1.506656e+01
  1.324438e+01    1.067292e+01
  1.335551e+01    4.438916e+00
  1.346664e+01    3.159047e+00
  1.357777e+01    2.699304e+00
  1.368890e+01    2.576710e+00
  1.380003e+01    2.484815e+00
  1.391116e+01    2.410113e+00
  1.402229e+01    2.348366e+00
  1.413342e+01    2.305695e+00
  1.424455e+01    2.322063e+00
  1.435568e+01    2.274916e+00
  1.446680e+01    2.223717e+00
  1.457793e+01    2.250173e+00
  1.468906e+01    2.231751e+00
  1.480019e+01    2.178377e+00
  1.491132e+01    2.222661e+00
  1.502245e+01    2.547789e+00
  1.513358e+01    3.890374e+00
  1.524471e+01    5.836170e+00
  1.535584e+01    3.763517e+00
  1.546697e+01    2.496512e+00
  1.557809e+01    2.109778e+00
  1.568922e+01    2.038126e+00
  1.580035e+01    1.923201e+00
  1.591148e+01    1.914697e+00
  1.602261e+01    1.894064e+00
  1.613374e+01    1.839367e+00
  1.624487e+01    1.845270e+00
  1.635600e+01    1.775563e+00
  1.646713e+01    1.761884e+00
  1.657826e+01    1.754456e+00
  1.668938e+01    1.743074e+00
  1.680051e+01    1.732979e+00
  1.691164e+01    1.691635e+00
  1.702277e+01    1.653598e+00
  1.713390e+01    1.660597e+00
  1.724503e+01    1.625968e+00
  1.735616e+01    1.580267e+00
  1.746729e+01    1.618153e+00
  1.757842e+01    1.594857e+00
  1.768955e+01    1.546083e+00
  1.780067e+01    1.536613e+00
  1.791180e+01    1.533762e+00
  1.802293e+01    1.530090e+00
  1.813406e+01    1.533438e+00
  1.824519e+01    1.499404e+00
  1.835632e+01    1.451978e+00
  1.846745e+01    1.453680e+00
  1.857858e+01    1.451720e+00
  1.868971e+01    1.419042e+00
  1.880084e+01    1.398438e+00
  1.891196e+01    1.418502e+00
  1.902309e+01    1.393980e+00
  1.913422e+01    1.371525e+00
  1.924535e+01    1.392646e+00
  1.935648e+01    1.346363e+00
  1.946761e+01    1.355850e+00
  1.957874e+01    1.315394e+00
  1.968987e+01    1.327966e+00
  1.980100e+01    1.317901e+00
  1.991213e+01    1.293935e+00
  2.002325e+01    1.287297e+00
  2.013438e+01    1.277506e+00
  2.024551e+01    1.263430e+00
  2.035664e+01    1.254723e+00
  2.046777e+01    1.247003e+00
  2.057890e+01    1.255536e+00
  2.069003e+01    1.248823e+00
  2.080116e+01    1.224615e+00
  2.091229e+01    1.236513e+00
  2.102342e+01    1.231683e+00
  2.113455e+01    1.219916e+00
  2.124567e+01    1.258814e+00
  2.135680e+01    1.312639e+00
  2.146793e+01    1.396129e+00
  2.157906e+01    1.650933e+00
  2.169019e+01    2.559866e+00
  2.180132e+01    6.018327e+00
  2.191245e+01    8.752443e+00
  2.202358e+01    3.588147e+00
  2.213471e+01    1.869881e+00
  2.224584e+01    1.393413e+00
  2.235696e+01    1.265966e+00
  2.246809e+01    1.163487e+00
  2.257922e+01    1.101794e+00
  2.269035e+01    1.106367e+00
  2.280148e+01    1.081401e+00
  2.291261e+01    1.050088e+00
  2.302374e+01    1.008394e+00
  2.313487e+01    1.007242e+00
  2.324600e+01    9.912985e-01
  2.335713e+01    9.963452e-01
  2.346825e+01    9.606394e-01
  2.357938e+01    9.785164e-01
  2.369051e+01    9.578783e-01
  2.380164e+01    9.219195e-01
  2.391277e+01    9.121469e-01
  2.402390e+01    8.814465e-01
  2.413503e+01    9.165584e-01
  2.424616e+01    8.747104e-01
  2.435729e+01    8.988985e-01
  2.446842e+01    8.960684e-01
  2.457954e+01    8.832793e-01
  2.469067e+01    8.908217e-01
  2.480180e+01    8.870509e-01
  2.491293e+01    8.955853e-01
  2.502406e+01    9.151688e-01
  2.513519e+01    9.190145e-01
  2.524632e+01    9.496595e-01
  2.535745e+01    9.614438e-01
  2.546858e+01    1.031045e+00
  2.557971e+01    1.167918e+00
  2.569083e+01    1.526543e+00
  2.580196e+01    2.890147e+00
  2.591309e+01    6.493398e+00
  2.602422e+01    5.207827e+00
  2.613535e+01    2.098829e+00
  2.624648e+01    1.353799e+00
  2.635761e+01    1.101922e+00
  2.646874e+01    1.038996e+00
  2.657987e+01    1.007326e+00
  2.669100e+01    9.711701e-01
  2.680212e+01    1.001406e+00
  2.691325e+01    1.026495e+00
  2.702438e+01    1.157371e+00
  2.713551e+01    1.751234e+00
  2.724664e+01    2.093381e+00
  2.735777e+01    1.301720e+00
  2.746890e+01    1.011808e+00
  2.758003e+01    9.454281e-01
  2.769116e+01    8.872793e-01
  2.780229e+01    8.914855e-01
  2.791342e+01    8.998733e-01
  2.802454e+01    8.640001e-01
  2.813567e+01    8.484144e-01
  2.824680e+01    8.643571e-01
  2.835793e+01    8.476451e-01
  2.846906e+01    8.554007e-01
  2.858019e+01    8.230696e-01
  2.869132e+01    8.416011e-01
  2.880245e+01    8.395478e-01
  2.891358e+01    8.163345e-01
  2.902471e+01    8.044581e-01
  2.913583e+01    8.081823e-01
  2.924696e+01    8.071182e-01
  2.935809e+01    8.221391e-01
  2.946922e+01    8.119004e-01
  2.958035e+01    8.103857e-01
  2.969148e+01    8.036917e-01
  2.980261e+01    7.938207e-01
  2.991374e+01    7.963135e-01
  3.002487e+01    8.157974e-01
  3.013600e+01    7.993783e-01
  3.024712e+01    7.880626e-01
  3.035825e+01    7.714928e-01
  3.046938e+01    7.836815e-01
  3.058051e+01    8.077587e-01
  3.069164e+01    7.631457e-01
  3.080277e+01    7.768807e-01
  3.091390e+01    7.934651e-01
  3.102503e+01    7.980211e-01
  3.113616e+01    7.985789e-01
  3.124729e+01    8.040980e-01
  3.135841e+01    8.350289e-01
  3.146954e+01    8.063602e-01
  3.158067e+01    8.837690e-01
  3.169180e+01    1.011572e+00
  3.180293e+01    1.483274e+00
  3.191406e+01    2.119084e+00
  3.202519e+01    1.330539e+00
  3.213632e+01    9.318329e-01
  3.224745e+01    8.406655e-01
  3.235858e+01    8.145399e-01
  3.246970e+01    7.683074e-01
  3.254908e+01    7.797087e-01

File: 2024-07-27_003_Ru-CGO-ex_Reaction_dwell_000023_data_000077.dat
# == pyFAI calibration ==
# Distance Sample to Detector: 0.4 m
# PONI: 9.750e-02, 1.135e-01 m
# Rotations: -0.000175 0.000000 -0.000000 rad
#
# == Fit2d calibration ==
# Distance Sample-beamCenter: 400.000 mm
# Center: x=1514.000, y=1300.000 pix
# Tilt: 0.010 deg  TiltPlanRot: 0.010 deg
#
# Detector Detector	 Spline= None	 PixelSize= 7.500e-05, 7.500e-05 m
#    Detector has a mask: False
#    Detector has a dark current: False
#    detector has a flat field: False
#
# Wavelength: 6.888e-11 m
# Mask applied: user provided
# Dark current applied: False
# Flat field applied: False
# Polarization factor: 0.99
# Normalization factor: 1.0
# --> /home/myspot/data/2024_07_Rosario/Ru-CGO-ex/2024-07-27_003_Ru-CGO-ex_Reaction_dwell_000023_data_000077.dat
#       q_nm^-1             I
  2.003187e-02    7.712225e-02
  1.311609e-01    6.060091e-02
  2.422899e-01    5.076949e-02
  3.534189e-01    3.736504e-02
  4.645479e-01    4.948698e-02
  5.756770e-01    2.997437e-02
  6.868060e-01    4.951832e-02
  7.979350e-01    1.796789e-01
  9.090640e-01    6.717649e-01
  1.020193e+00    1.340358e+00
  1.131322e+00    1.592765e+00
  1.242451e+00    2.180403e+00
  1.353580e+00    2.825907e+00
  1.464709e+00    2.906634e+00
  1.575838e+00    3.240142e+00
  1.686967e+00    3.111156e+00
  1.798096e+00    3.035734e+00
  1.909225e+00    3.127348e+00
  2.020354e+00    3.123621e+00
  2.131483e+00    3.010218e+00
  2.242612e+00    3.194767e+00
  2.353741e+00    3.185128e+00
  2.464870e+00    3.346387e+00
  2.575999e+00    3.342473e+00
  2.687128e+00    3.229987e+00
  2.798257e+00    3.372800e+00
  2.909386e+00    3.300194e+00
  3.020515e+00    3.386179e+00
  3.131644e+00    3.443336e+00
  3.242773e+00    3.424999e+00
  3.353902e+00    3.415760e+00
  3.465031e+00    3.479373e+00
  3.576160e+00    3.536401e+00
  3.687289e+00    3.606524e+00
  3.798418e+00    3.493340e+00
  3.909547e+00    3.492654e+00
  4.020676e+00    3.478996e+00
  4.131806e+00    3.495554e+00
  4.242935e+00    3.573490e+00
  4.354064e+00    3.626390e+00
  4.465193e+00    3.588590e+00
  4.576322e+00    3.625303e+00
  4.687451e+00    3.688699e+00
  4.798580e+00    3.653743e+00
  4.909709e+00    3.675202e+00
  5.020838e+00    3.713268e+00
  5.131967e+00    3.721578e+00
  5.243096e+00    3.647925e+00
  5.354225e+00    3.641692e+00
  5.465354e+00    3.631823e+00
  5.576483e+00    3.568668e+00
  5.687612e+00    3.584031e+00
  5.798741e+00    3.574318e+00
  5.909870e+00    3.572498e+00
  6.020999e+00    3.491647e+00
  6.132128e+00    3.546603e+00
  6.243257e+00    3.537232e+00
  6.354386e+00    3.587879e+00
  6.465515e+00    3.587532e+00
  6.576644e+00    3.606307e+00
  6.687773e+00    3.552827e+00
  6.798902e+00    3.557626e+00
  6.910031e+00    3.520572e+00
  7.021160e+00    3.517571e+00
  7.132289e+00    3.560354e+00
  7.243418e+00    3.603561e+00
  7.354547e+00    3.492956e+00
  7.465676e+00    3.515117e+00
  7.576805e+00    3.569079e+00
  7.687934e+00    3.533400e+00
  7.799063e+00    3.484291e+00
  7.910192e+00    3.468814e+00
  8.021321e+00    3.438111e+00
  8.132450e+00    3.445560e+00
  8.243579e+00    3.506895e+00
  8.354708e+00    3.421736e+00
  8.465837e+00    3.376530e+00
  8.576966e+00    3.355731e+00
  8.688095e+00    3.347136e+00
  8.799224e+00    3.382161e+00
  8.910353e+00    3.374305e+00
  9.021482e+00    3.366679e+00
  9.132611e+00    3.311190e+00
  9.243740e+00    3.258413e+00
  9.354869e+00    3.308637e+00
  9.465998e+00    3.185101e+00
  9.577127e+00    3.198286e+00
  9.688256e+00    3.202000e+00
  9.799385e+00    3.252168e+00
  9.910514e+00    3.211097e+00
  1.002164e+01    3.164698e+00
  1.013277e+01    3.047886e+00
  1.024390e+01    3.099903e+00
  1.035503e+01    3.067595e+00
  1.046616e+01    3.012556e+00
  1.057729e+01    3.041910e+00
  1.068842e+01    3.019092e+00
  1.079955e+01    2.978093e+00
  1.091068e+01    2.925334e+00
  1.102180e+01    2.965762e+00
  1.113293e+01    2.905170e+00
  1.124406e+01    2.868386e+00
  1.135519e+01    2.858909e+00
  1.146632e+01    2.888562e+00
  1.157745e+01    2.828506e+00
  1.168858e+01    2.777065e+00
  1.179971e+01    2.784768e+00
  1.191084e+01    2.748093e+00
  1.202197e+01    2.767419e+00
  1.213309e+01    2.733337e+00
  1.224422e+01    2.697560e+00
  1.235535e+01    2.670788e+00
  1.246648e+01    2.720997e+00
  1.257761e+01    2.719789e+00
  1.268874e+01    2.847718e+00
  1.279987e+01    3.022489e+00
  1.291100e+01    3.691192e+00
  1.302213e+01    6.766546e+00
  1.313326e+01    1.491415e+01
  1.324438e+01    1.079566e+01
  1.335551e+01    4.473127e+00
  1.346664e+01    3.112123e+00
  1.357777e+01    2.718973e+00
  1.368890e+01    2.542840e+00
  1.380003e+01    2.452447e+00
  1.391116e+01    2.377272e+00
  1.402229e+01    2.347479e+00
  1.413342e+01    2.368349e+00
  1.424455e+01    2.293750e+00
  1.435568e+01    2.300740e+00
  1.446680e+01    2.240670e+00
  1.457793e+01    2.223980e+00
  1.468906e+01    2.252438e+00
  1.480019e+01    2.248981e+00
  1.491132e+01    2.236325e+00
  1.502245e+01    2.547424e+00
  1.513358e+01    3.818220e+00
  1.524471e+01    5.805098e+00
  1.535584e+01    3.773498e+00
  1.546697e+01    2.434414e+00
  1.557809e+01    2.103949e+00
  1.568922e+01    2.005542e+00
  1.580035e+01    1.939045e+00
  1.591148e+01    1.945086e+00
  1.602261e+01    1.856858e+00
  1.613374e+01    1.815249e+00
  1.624487e+01    1.818776e+00
  1.635600e+01    1.824136e+00
  1.646713e+01    1.775372e+00
  1.657826e+01    1.788761e+00
  1.668938e+01    1.739934e+00
  1.680051e+01    1.727160e+00
  1.691164e+01    1.681504e+00
  1.702277e+01    1.676293e+00
  1.713390e+01    1.652177e+00
  1.724503e+01    1.596768e+00
  1.735616e+01    1.641110e+00
  1.746729e+01    1.605895e+00
  1.757842e+01    1.549145e+00
  1.768955e+01    1.577135e+00
  1.780067e+01    1.530476e+00
  1.791180e+01    1.534859e+00
  1.802293e+01    1.493319e+00
  1.813406e+01    1.503181e+00
  1.824519e+01    1.497937e+00
  1.835632e+01    1.503822e+00
  1.846745e+01    1.430037e+00
  1.857858e+01    1.432275e+00
  1.868971e+01    1.445316e+00
  1.880084e+01    1.408347e+00
  1.891196e+01    1.403465e+00
  1.902309e+01    1.375599e+00
  1.913422e+01    1.386812e+00
  1.924535e+01    1.367061e+00
  1.935648e+01    1.333688e+00
  1.946761e+01    1.335065e+00
  1.957874e+01    1.345434e+00
  1.968987e+01    1.311248e+00
  1.980100e+01    1.310782e+00
  1.991213e+01    1.310573e+00
  2.002325e+01    1.247153e+00
  2.013438e+01    1.270830e+00
  2.024551e+01    1.264647e+00
  2.035664e+01    1.243623e+00
  2.046777e+01    1.269237e+00
  2.057890e+01    1.242334e+00
  2.069003e+01    1.230596e+00
  2.080116e+01    1.210286e+00
  2.091229e+01    1.219933e+00
  2.102342e+01    1.226767e+00
  2.113455e+01    1.240516e+00
  2.124567e+01    1.225871e+00
  2.135680e+01    1.285552e+00
  2.146793e+01    1.365878e+00
  2.157906e+01    1.621310e+00
  2.169019e+01    2.552237e+00
  2.180132e+01    5.904854e+00
  2.191245e+01    8.834780e+00
  2.202358e+01    3.648195e+00
  2.213471e+01    1.882417e+00
  2.224584e+01    1.387755e+00
  2.235696e+01    1.261551e+00
  2.246809e+01    1.145645e+00
  2.257922e+01    1.134855e+00
  2.269035e+01    1.097551e+00
  2.280148e+01    1.082471e+00
  2.291261e+01    1.025634e+00
  2.302374e+01    1.039265e+00
  2.313487e+01    1.016292e+00
  2.324600e+01    9.863127e-01
  2.335713e+01    9.817406e-01
  2.346825e+01    9.789982e-01
  2.357938e+01    9.753268e-01
  2.369051e+01    9.445192e-01
  2.380164e+01    9.279831e-01
  2.391277e+01    9.057620e-01
  2.402390e+01    9.088250e-01
  2.413503e+01    8.838423e-01
  2.424616e+01    8.669237e-01
  2.435729e+01    8.746925e-01
  2.446842e+01    8.828402e-01
  2.457954e+01    8.873466e-01
  2.469067e+01    8.791289e-01
  2.480180e+01    9.015633e-01
  2.491293e+01    9.098098e-01
  2.502406e+01    8.934178e-01
  2.513519e+01    9.222243e-01
  2.524632e+01    9.314587e-01
  2.535745e+01    9.966837e-01
  2.546858e+01    1.004426e+00
  2.557971e+01    1.168997e+00
  2.569083e+01    1.490252e+00
  2.580196e+01    2.888265e+00
  2.591309e+01    6.396191e+00
  2.602422e+01    5.311848e+00
  2.613535e+01    2.131867e+00
  2.624648e+01    1.332230e+00
  2.635761e+01    1.096443e+00
  2.646874e+01    1.020999e+00
  2.657987e+01    9.804959e-01
  2.669100e+01    9.859917e-01
  2.680212e+01    9.810815e-01
  2.691325e+01    9.765710e-01
  2.702438e+01    1.133134e+00
  2.713551e+01    1.742648e+00
  2.724664e+01    2.074863e+00
  2.735777e+01    1.287742e+00
  2.746890e+01    1.027898e+00
  2.758003e+01    9.393747e-01
  2.769116e+01    8.929711e-01
  2.780229e+01    9.024421e-01
  2.791342e+01    8.934086e-01
  2.802454e+01    8.587244e-01
  2.813567e+01    8.616894e-01
  2.824680e+01    8.609172e-01
  2.835793e+01    8.528367e-01
  2.846906e+01    8.644559e-01
  2.858019e+01    8.478587e-01
  2.869132e+01    8.372905e-01
  2.880245e+01    8.150689e-01
  2.891358e+01    8.266813e-01
  2.902471e+01    8.242370e-01
  2.913583e+01    8.150938e-01
  2.924696e+01    8.328219e-01
  2.935809e+01    8.097300e-01
  2.946922e+01    7.995338e-01
  2.958035e+01    7.893962e-01
  2.969148e+01    8.238650e-01
  2.980261e+01    8.076603e-01
  2.991374e+01    8.062414e-01
  3.002487e+01    7.949033e-01
  3.013600e+01    7.954165e-01
  3.024712e+01    7.736222e-01
  3.035825e+01    7.900384e-01
  3.046938e+01    7.620896e-01
  3.058051e+01    7.965763e-01
  3.069164e+01    7.785493e-01
  3.080277e+01    7.923688e-01
  3.091390e+01    7.816513e-01
  3.102503e+01    8.115007e-01
  3.113616e+01    7.917184e-01
  3.124729e+01    8.017430e-01
  3.135841e+01    8.114771e-01
  3.146954e+01    8.313916e-01
  3.158067e+01    9.057252e-01
  3.169180e+01    9.808643e-01
  3.180293e+01    1.474755e+00
  3.191406e+01    2.140125e+00
  3.202519e+01    1.335260e+00
  3.213632e+01    9.342622e-01
  3.224745e+01    8.459343e-01
  3.235858e+01    7.957781e-01
  3.246970e+01    7.835743e-01
  3.254908e+01    7.887477e-01