Folder: myspot_2024_07/XRD/Reaction conditions (part 35)

File: 2024-07-27_003_Ru-CGO-ex_Reaction_dwell_000023_data_000092.dat
# == pyFAI calibration ==
# Distance Sample to Detector: 0.4 m
# PONI: 9.750e-02, 1.135e-01 m
# Rotations: -0.000175 0.000000 -0.000000 rad
#
# == Fit2d calibration ==
# Distance Sample-beamCenter: 400.000 mm
# Center: x=1514.000, y=1300.000 pix
# Tilt: 0.010 deg  TiltPlanRot: 0.010 deg
#
# Detector Detector	 Spline= None	 PixelSize= 7.500e-05, 7.500e-05 m
#    Detector has a mask: False
#    Detector has a dark current: False
#    detector has a flat field: False
#
# Wavelength: 6.888e-11 m
# Mask applied: user provided
# Dark current applied: False
# Flat field applied: False
# Polarization factor: 0.99
# Normalization factor: 1.0
# --> /home/myspot/data/2024_07_Rosario/Ru-CGO-ex/2024-07-27_003_Ru-CGO-ex_Reaction_dwell_000023_data_000092.dat
#       q_nm^-1             I
  2.003187e-02    1.424646e-01
  1.311609e-01    1.006304e-02
  2.422899e-01    4.412343e-02
  3.534189e-01    3.654204e-02
  4.645479e-01    4.273254e-02
  5.756770e-01    2.610313e-02
  6.868060e-01    3.766008e-02
  7.979350e-01    1.206495e-01
  9.090640e-01    5.964566e-01
  1.020193e+00    1.329764e+00
  1.131322e+00    1.589436e+00
  1.242451e+00    2.297202e+00
  1.353580e+00    2.773879e+00
  1.464709e+00    3.100245e+00
  1.575838e+00    2.927379e+00
  1.686967e+00    3.079024e+00
  1.798096e+00    3.065287e+00
  1.909225e+00    3.099266e+00
  2.020354e+00    3.090649e+00
  2.131483e+00    3.021420e+00
  2.242612e+00    3.232794e+00
  2.353741e+00    3.215845e+00
  2.464870e+00    3.106204e+00
  2.575999e+00    3.196040e+00
  2.687128e+00    3.329479e+00
  2.798257e+00    3.250484e+00
  2.909386e+00    3.254519e+00
  3.020515e+00    3.197308e+00
  3.131644e+00    3.382450e+00
  3.242773e+00    3.417986e+00
  3.353902e+00    3.441139e+00
  3.465031e+00    3.454165e+00
  3.576160e+00    3.594983e+00
  3.687289e+00    3.566247e+00
  3.798418e+00    3.515442e+00
  3.909547e+00    3.419070e+00
  4.020676e+00    3.551610e+00
  4.131806e+00    3.654272e+00
  4.242935e+00    3.486607e+00
  4.354064e+00    3.579863e+00
  4.465193e+00    3.572522e+00
  4.576322e+00    3.591876e+00
  4.687451e+00    3.686316e+00
  4.798580e+00    3.665108e+00
  4.909709e+00    3.698604e+00
  5.020838e+00    3.685407e+00
  5.131967e+00    3.640593e+00
  5.243096e+00    3.643970e+00
  5.354225e+00    3.592817e+00
  5.465354e+00    3.577253e+00
  5.576483e+00    3.552216e+00
  5.687612e+00    3.588912e+00
  5.798741e+00    3.610392e+00
  5.909870e+00    3.519236e+00
  6.020999e+00    3.447089e+00
  6.132128e+00    3.569043e+00
  6.243257e+00    3.567711e+00
  6.354386e+00    3.647487e+00
  6.465515e+00    3.527781e+00
  6.576644e+00    3.528323e+00
  6.687773e+00    3.504460e+00
  6.798902e+00    3.543834e+00
  6.910031e+00    3.558112e+00
  7.021160e+00    3.608220e+00
  7.132289e+00    3.526627e+00
  7.243418e+00    3.520940e+00
  7.354547e+00    3.478437e+00
  7.465676e+00    3.467901e+00
  7.576805e+00    3.429079e+00
  7.687934e+00    3.529635e+00
  7.799063e+00    3.418019e+00
  7.910192e+00    3.467401e+00
  8.021321e+00    3.440085e+00
  8.132450e+00    3.445967e+00
  8.243579e+00    3.492157e+00
  8.354708e+00    3.417165e+00
  8.465837e+00    3.425549e+00
  8.576966e+00    3.363696e+00
  8.688095e+00    3.336000e+00
  8.799224e+00    3.262876e+00
  8.910353e+00    3.357297e+00
  9.021482e+00    3.265230e+00
  9.132611e+00    3.271766e+00
  9.243740e+00    3.255989e+00
  9.354869e+00    3.211077e+00
  9.465998e+00    3.198623e+00
  9.577127e+00    3.209175e+00
  9.688256e+00    3.182856e+00
  9.799385e+00    3.205235e+00
  9.910514e+00    3.127622e+00
  1.002164e+01    3.084306e+00
  1.013277e+01    3.050683e+00
  1.024390e+01    3.065978e+00
  1.035503e+01    3.071362e+00
  1.046616e+01    2.983227e+00
  1.057729e+01    3.005511e+00
  1.068842e+01    2.979084e+00
  1.079955e+01    2.940223e+00
  1.091068e+01    2.940077e+00
  1.102180e+01    2.858823e+00
  1.113293e+01    2.875211e+00
  1.124406e+01    2.901431e+00
  1.135519e+01    2.863223e+00
  1.146632e+01    2.762040e+00
  1.157745e+01    2.763295e+00
  1.168858e+01    2.709679e+00
  1.179971e+01    2.791057e+00
  1.191084e+01    2.738910e+00
  1.202197e+01    2.688996e+00
  1.213309e+01    2.730385e+00
  1.224422e+01    2.692279e+00
  1.235535e+01    2.686367e+00
  1.246648e+01    2.699767e+00
  1.257761e+01    2.716058e+00
  1.268874e+01    2.795600e+00
  1.279987e+01    2.984617e+00
  1.291100e+01    3.608395e+00
  1.302213e+01    6.708316e+00
  1.313326e+01    1.484702e+01
  1.324438e+01    1.072593e+01
  1.335551e+01    4.392206e+00
  1.346664e+01    3.180594e+00
  1.357777e+01    2.740596e+00
  1.368890e+01    2.531660e+00
  1.380003e+01    2.516806e+00
  1.391116e+01    2.435362e+00
  1.402229e+01    2.376563e+00
  1.413342e+01    2.296633e+00
  1.424455e+01    2.291091e+00
  1.435568e+01    2.270351e+00
  1.446680e+01    2.255386e+00
  1.457793e+01    2.234030e+00
  1.468906e+01    2.192667e+00
  1.480019e+01    2.226312e+00
  1.491132e+01    2.241044e+00
  1.502245e+01    2.491659e+00
  1.513358e+01    3.779704e+00
  1.524471e+01    5.785522e+00
  1.535584e+01    3.821897e+00
  1.546697e+01    2.448125e+00
  1.557809e+01    2.135827e+00
  1.568922e+01    2.049984e+00
  1.580035e+01    1.962161e+00
  1.591148e+01    1.915441e+00
  1.602261e+01    1.878794e+00
  1.613374e+01    1.827957e+00
  1.624487e+01    1.840418e+00
  1.635600e+01    1.761105e+00
  1.646713e+01    1.788297e+00
  1.657826e+01    1.732469e+00
  1.668938e+01    1.741319e+00
  1.680051e+01    1.723049e+00
  1.691164e+01    1.703867e+00
  1.702277e+01    1.644611e+00
  1.713390e+01    1.653577e+00
  1.724503e+01    1.673555e+00
  1.735616e+01    1.609044e+00
  1.746729e+01    1.600441e+00
  1.757842e+01    1.603925e+00
  1.768955e+01    1.553769e+00
  1.780067e+01    1.522328e+00
  1.791180e+01    1.545007e+00
  1.802293e+01    1.491982e+00
  1.813406e+01    1.489768e+00
  1.824519e+01    1.492842e+00
  1.835632e+01    1.457549e+00
  1.846745e+01    1.473732e+00
  1.857858e+01    1.417092e+00
  1.868971e+01    1.426901e+00
  1.880084e+01    1.397034e+00
  1.891196e+01    1.385621e+00
  1.902309e+01    1.378787e+00
  1.913422e+01    1.382249e+00
  1.924535e+01    1.363357e+00
  1.935648e+01    1.351112e+00
  1.946761e+01    1.333640e+00
  1.957874e+01    1.352509e+00
  1.968987e+01    1.299217e+00
  1.980100e+01    1.285122e+00
  1.991213e+01    1.283549e+00
  2.002325e+01    1.268019e+00
  2.013438e+01    1.271145e+00
  2.024551e+01    1.272344e+00
  2.035664e+01    1.243205e+00
  2.046777e+01    1.227344e+00
  2.057890e+01    1.241661e+00
  2.069003e+01    1.230443e+00
  2.080116e+01    1.236328e+00
  2.091229e+01    1.221350e+00
  2.102342e+01    1.236983e+00
  2.113455e+01    1.224899e+00
  2.124567e+01    1.237865e+00
  2.135680e+01    1.283535e+00
  2.146793e+01    1.353600e+00
  2.157906e+01    1.609114e+00
  2.169019e+01    2.482455e+00
  2.180132e+01    5.788517e+00
  2.191245e+01    8.801093e+00
  2.202358e+01    3.634217e+00
  2.213471e+01    1.892300e+00
  2.224584e+01    1.384451e+00
  2.235696e+01    1.209655e+00
  2.246809e+01    1.178388e+00
  2.257922e+01    1.125190e+00
  2.269035e+01    1.078672e+00
  2.280148e+01    1.070403e+00
  2.291261e+01    1.053067e+00
  2.302374e+01    1.020501e+00
  2.313487e+01    9.852702e-01
  2.324600e+01    9.925982e-01
  2.335713e+01    9.768647e-01
  2.346825e+01    9.691680e-01
  2.357938e+01    9.469787e-01
  2.369051e+01    9.437976e-01
  2.380164e+01    9.351245e-01
  2.391277e+01    9.099508e-01
  2.402390e+01    8.834167e-01
  2.413503e+01    8.710979e-01
  2.424616e+01    8.901188e-01
  2.435729e+01    9.081621e-01
  2.446842e+01    8.960620e-01
  2.457954e+01    9.024698e-01
  2.469067e+01    9.002622e-01
  2.480180e+01    8.984337e-01
  2.491293e+01    8.787375e-01
  2.502406e+01    8.950736e-01
  2.513519e+01    9.011523e-01
  2.524632e+01    9.300027e-01
  2.535745e+01    9.653601e-01
  2.546858e+01    1.033758e+00
  2.557971e+01    1.148276e+00
  2.569083e+01    1.477442e+00
  2.580196e+01    2.791364e+00
  2.591309e+01    6.268317e+00
  2.602422e+01    5.361912e+00
  2.613535e+01    2.135966e+00
  2.624648e+01    1.335966e+00
  2.635761e+01    1.112886e+00
  2.646874e+01    1.039567e+00
  2.657987e+01    9.832481e-01
  2.669100e+01    9.698170e-01
  2.680212e+01    9.844267e-01
  2.691325e+01    1.007636e+00
  2.702438e+01    1.143021e+00
  2.713551e+01    1.753486e+00
  2.724664e+01    2.113597e+00
  2.735777e+01    1.270880e+00
  2.746890e+01    1.022584e+00
  2.758003e+01    9.476830e-01
  2.769116e+01    9.097320e-01
  2.780229e+01    8.965853e-01
  2.791342e+01    8.778980e-01
  2.802454e+01    8.708517e-01
  2.813567e+01    8.381556e-01
  2.824680e+01    8.520194e-01
  2.835793e+01    8.572507e-01
  2.846906e+01    8.363506e-01
  2.858019e+01    8.207049e-01
  2.869132e+01    8.124474e-01
  2.880245e+01    8.206416e-01
  2.891358e+01    8.324830e-01
  2.902471e+01    8.060606e-01
  2.913583e+01    8.251108e-01
  2.924696e+01    8.043692e-01
  2.935809e+01    7.915510e-01
  2.946922e+01    8.236701e-01
  2.958035e+01    7.951204e-01
  2.969148e+01    8.010666e-01
  2.980261e+01    8.268219e-01
  2.991374e+01    7.872280e-01
  3.002487e+01    8.053818e-01
  3.013600e+01    7.761225e-01
  3.024712e+01    8.008876e-01
  3.035825e+01    7.871408e-01
  3.046938e+01    7.830364e-01
  3.058051e+01    7.796719e-01
  3.069164e+01    7.854198e-01
  3.080277e+01    8.001215e-01
  3.091390e+01    7.824893e-01
  3.102503e+01    7.857024e-01
  3.113616e+01    8.034006e-01
  3.124729e+01    7.974023e-01
  3.135841e+01    7.882251e-01
  3.146954e+01    8.169925e-01
  3.158067e+01    8.617664e-01
  3.169180e+01    9.895338e-01
  3.180293e+01    1.489199e+00
  3.191406e+01    2.055073e+00
  3.202519e+01    1.339996e+00
  3.213632e+01    9.273894e-01
  3.224745e+01    8.142703e-01
  3.235858e+01    7.965187e-01
  3.246970e+01    7.736056e-01
  3.254908e+01    7.752544e-01

File: 2024-07-27_003_Ru-CGO-ex_Reaction_dwell_000023_data_000093.dat
# == pyFAI calibration ==
# Distance Sample to Detector: 0.4 m
# PONI: 9.750e-02, 1.135e-01 m
# Rotations: -0.000175 0.000000 -0.000000 rad
#
# == Fit2d calibration ==
# Distance Sample-beamCenter: 400.000 mm
# Center: x=1514.000, y=1300.000 pix
# Tilt: 0.010 deg  TiltPlanRot: 0.010 deg
#
# Detector Detector	 Spline= None	 PixelSize= 7.500e-05, 7.500e-05 m
#    Detector has a mask: False
#    Detector has a dark current: False
#    detector has a flat field: False
#
# Wavelength: 6.888e-11 m
# Mask applied: user provided
# Dark current applied: False
# Flat field applied: False
# Polarization factor: 0.99
# Normalization factor: 1.0
# --> /home/myspot/data/2024_07_Rosario/Ru-CGO-ex/2024-07-27_003_Ru-CGO-ex_Reaction_dwell_000023_data_000093.dat
#       q_nm^-1             I
  2.003187e-02    7.711996e-02
  1.311609e-01    5.793523e-02
  2.422899e-01    1.889470e-02
  3.534189e-01    5.212910e-02
  4.645479e-01    5.402063e-02
  5.756770e-01    4.982013e-02
  6.868060e-01    5.942941e-02
  7.979350e-01    1.529618e-01
  9.090640e-01    5.919526e-01
  1.020193e+00    1.142861e+00
  1.131322e+00    1.565275e+00
  1.242451e+00    2.352168e+00
  1.353580e+00    2.718916e+00
  1.464709e+00    2.966788e+00
  1.575838e+00    3.226843e+00
  1.686967e+00    3.013872e+00
  1.798096e+00    3.086628e+00
  1.909225e+00    3.089791e+00
  2.020354e+00    3.048138e+00
  2.131483e+00    3.056422e+00
  2.242612e+00    3.099246e+00
  2.353741e+00    3.087342e+00
  2.464870e+00    3.140336e+00
  2.575999e+00    3.212524e+00
  2.687128e+00    3.212086e+00
  2.798257e+00    3.231025e+00
  2.909386e+00    3.301562e+00
  3.020515e+00    3.303285e+00
  3.131644e+00    3.334393e+00
  3.242773e+00    3.446415e+00
  3.353902e+00    3.436167e+00
  3.465031e+00    3.462779e+00
  3.576160e+00    3.548924e+00
  3.687289e+00    3.493590e+00
  3.798418e+00    3.535471e+00
  3.909547e+00    3.529948e+00
  4.020676e+00    3.519136e+00
  4.131806e+00    3.482456e+00
  4.242935e+00    3.566736e+00
  4.354064e+00    3.549614e+00
  4.465193e+00    3.543722e+00
  4.576322e+00    3.586349e+00
  4.687451e+00    3.633642e+00
  4.798580e+00    3.588612e+00
  4.909709e+00    3.636688e+00
  5.020838e+00    3.585639e+00
  5.131967e+00    3.641536e+00
  5.243096e+00    3.601689e+00
  5.354225e+00    3.680081e+00
  5.465354e+00    3.583081e+00
  5.576483e+00    3.529170e+00
  5.687612e+00    3.632382e+00
  5.798741e+00    3.526573e+00
  5.909870e+00    3.486159e+00
  6.020999e+00    3.600412e+00
  6.132128e+00    3.588431e+00
  6.243257e+00    3.536280e+00
  6.354386e+00    3.597158e+00
  6.465515e+00    3.584086e+00
  6.576644e+00    3.550040e+00
  6.687773e+00    3.576452e+00
  6.798902e+00    3.574060e+00
  6.910031e+00    3.515646e+00
  7.021160e+00    3.514612e+00
  7.132289e+00    3.570899e+00
  7.243418e+00    3.506383e+00
  7.354547e+00    3.545693e+00
  7.465676e+00    3.453869e+00
  7.576805e+00    3.489158e+00
  7.687934e+00    3.495954e+00
  7.799063e+00    3.477688e+00
  7.910192e+00    3.420370e+00
  8.021321e+00    3.393353e+00
  8.132450e+00    3.518718e+00
  8.243579e+00    3.425601e+00
  8.354708e+00    3.424830e+00
  8.465837e+00    3.401205e+00
  8.576966e+00    3.281469e+00
  8.688095e+00    3.317380e+00
  8.799224e+00    3.281444e+00
  8.910353e+00    3.342710e+00
  9.021482e+00    3.302392e+00
  9.132611e+00    3.342282e+00
  9.243740e+00    3.273629e+00
  9.354869e+00    3.256155e+00
  9.465998e+00    3.228955e+00
  9.577127e+00    3.216931e+00
  9.688256e+00    3.171481e+00
  9.799385e+00    3.191970e+00
  9.910514e+00    3.116689e+00
  1.002164e+01    3.087466e+00
  1.013277e+01    3.166634e+00
  1.024390e+01    3.116707e+00
  1.035503e+01    2.995680e+00
  1.046616e+01    3.011596e+00
  1.057729e+01    3.025574e+00
  1.068842e+01    2.970965e+00
  1.079955e+01    2.955403e+00
  1.091068e+01    2.974834e+00
  1.102180e+01    2.904579e+00
  1.113293e+01    2.848967e+00
  1.124406e+01    2.833650e+00
  1.135519e+01    2.861165e+00
  1.146632e+01    2.815174e+00
  1.157745e+01    2.812978e+00
  1.168858e+01    2.836212e+00
  1.179971e+01    2.728260e+00
  1.191084e+01    2.770186e+00
  1.202197e+01    2.736421e+00
  1.213309e+01    2.668859e+00
  1.224422e+01    2.700618e+00
  1.235535e+01    2.740872e+00
  1.246648e+01    2.698789e+00
  1.257761e+01    2.745012e+00
  1.268874e+01    2.797008e+00
  1.279987e+01    3.030573e+00
  1.291100e+01    3.660660e+00
  1.302213e+01    6.651720e+00
  1.313326e+01    1.485352e+01
  1.324438e+01    1.078633e+01
  1.335551e+01    4.475144e+00
  1.346664e+01    3.194992e+00
  1.357777e+01    2.762121e+00
  1.368890e+01    2.567536e+00
  1.380003e+01    2.497159e+00
  1.391116e+01    2.403470e+00
  1.402229e+01    2.341369e+00
  1.413342e+01    2.368191e+00
  1.424455e+01    2.304220e+00
  1.435568e+01    2.277071e+00
  1.446680e+01    2.213853e+00
  1.457793e+01    2.249142e+00
  1.468906e+01    2.232027e+00
  1.480019e+01    2.191012e+00
  1.491132e+01    2.246701e+00
  1.502245e+01    2.474304e+00
  1.513358e+01    3.771387e+00
  1.524471e+01    5.749089e+00
  1.535584e+01    3.781633e+00
  1.546697e+01    2.425181e+00
  1.557809e+01    2.124418e+00
  1.568922e+01    1.995685e+00
  1.580035e+01    1.907301e+00
  1.591148e+01    1.932213e+00
  1.602261e+01    1.880344e+00
  1.613374e+01    1.835254e+00
  1.624487e+01    1.818545e+00
  1.635600e+01    1.788969e+00
  1.646713e+01    1.738315e+00
  1.657826e+01    1.737041e+00
  1.668938e+01    1.722504e+00
  1.680051e+01    1.698122e+00
  1.691164e+01    1.687836e+00
  1.702277e+01    1.686011e+00
  1.713390e+01    1.629643e+00
  1.724503e+01    1.639587e+00
  1.735616e+01    1.619473e+00
  1.746729e+01    1.577641e+00
  1.757842e+01    1.558280e+00
  1.768955e+01    1.550897e+00
  1.780067e+01    1.524104e+00
  1.791180e+01    1.489116e+00
  1.802293e+01    1.511678e+00
  1.813406e+01    1.513675e+00
  1.824519e+01    1.459955e+00
  1.835632e+01    1.509433e+00
  1.846745e+01    1.432975e+00
  1.857858e+01    1.437756e+00
  1.868971e+01    1.407497e+00
  1.880084e+01    1.407441e+00
  1.891196e+01    1.394726e+00
  1.902309e+01    1.387914e+00
  1.913422e+01    1.381650e+00
  1.924535e+01    1.360627e+00
  1.935648e+01    1.347125e+00
  1.946761e+01    1.362630e+00
  1.957874e+01    1.318599e+00
  1.968987e+01    1.315537e+00
  1.980100e+01    1.316229e+00
  1.991213e+01    1.286102e+00
  2.002325e+01    1.285699e+00
  2.013438e+01    1.277273e+00
  2.024551e+01    1.244927e+00
  2.035664e+01    1.224062e+00
  2.046777e+01    1.254313e+00
  2.057890e+01    1.231120e+00
  2.069003e+01    1.234562e+00
  2.080116e+01    1.248924e+00
  2.091229e+01    1.196876e+00
  2.102342e+01    1.233320e+00
  2.113455e+01    1.223439e+00
  2.124567e+01    1.230300e+00
  2.135680e+01    1.284251e+00
  2.146793e+01    1.354027e+00
  2.157906e+01    1.572762e+00
  2.169019e+01    2.495904e+00
  2.180132e+01    5.819276e+00
  2.191245e+01    8.788842e+00
  2.202358e+01    3.666169e+00
  2.213471e+01    1.881843e+00
  2.224584e+01    1.422516e+00
  2.235696e+01    1.248064e+00
  2.246809e+01    1.145692e+00
  2.257922e+01    1.111559e+00
  2.269035e+01    1.090615e+00
  2.280148e+01    1.062163e+00
  2.291261e+01    1.046888e+00
  2.302374e+01    1.034532e+00
  2.313487e+01    9.953446e-01
  2.324600e+01    9.937941e-01
  2.335713e+01    9.770045e-01
  2.346825e+01    9.816087e-01
  2.357938e+01    9.577125e-01
  2.369051e+01    9.531532e-01
  2.380164e+01    9.345325e-01
  2.391277e+01    9.223897e-01
  2.402390e+01    9.211155e-01
  2.413503e+01    8.762088e-01
  2.424616e+01    8.889271e-01
  2.435729e+01    8.956459e-01
  2.446842e+01    8.926130e-01
  2.457954e+01    8.885657e-01
  2.469067e+01    8.758068e-01
  2.480180e+01    9.016520e-01
  2.491293e+01    9.029616e-01
  2.502406e+01    9.035993e-01
  2.513519e+01    9.137467e-01
  2.524632e+01    9.282816e-01
  2.535745e+01    9.862618e-01
  2.546858e+01    1.019475e+00
  2.557971e+01    1.156433e+00
  2.569083e+01    1.479275e+00
  2.580196e+01    2.761059e+00
  2.591309e+01    6.290524e+00
  2.602422e+01    5.356607e+00
  2.613535e+01    2.163096e+00
  2.624648e+01    1.328557e+00
  2.635761e+01    1.125902e+00
  2.646874e+01    1.043959e+00
  2.657987e+01    9.976785e-01
  2.669100e+01    9.896071e-01
  2.680212e+01    9.769366e-01
  2.691325e+01    9.848605e-01
  2.702438e+01    1.155025e+00
  2.713551e+01    1.702300e+00
  2.724664e+01    2.088233e+00
  2.735777e+01    1.284194e+00
  2.746890e+01    1.004119e+00
  2.758003e+01    9.449587e-01
  2.769116e+01    9.151179e-01
  2.780229e+01    9.072344e-01
  2.791342e+01    8.796262e-01
  2.802454e+01    8.626204e-01
  2.813567e+01    8.672652e-01
  2.824680e+01    8.531060e-01
  2.835793e+01    8.624427e-01
  2.846906e+01    8.256175e-01
  2.858019e+01    8.477260e-01
  2.869132e+01    8.342114e-01
  2.880245e+01    8.382910e-01
  2.891358e+01    8.165001e-01
  2.902471e+01    8.418853e-01
  2.913583e+01    8.075740e-01
  2.924696e+01    8.202571e-01
  2.935809e+01    8.023498e-01
  2.946922e+01    7.966682e-01
  2.958035e+01    7.941544e-01
  2.969148e+01    8.181509e-01
  2.980261e+01    8.068588e-01
  2.991374e+01    7.906013e-01
  3.002487e+01    8.035464e-01
  3.013600e+01    8.030097e-01
  3.024712e+01    7.963989e-01
  3.035825e+01    7.809753e-01
  3.046938e+01    7.792562e-01
  3.058051e+01    7.754338e-01
  3.069164e+01    8.062853e-01
  3.080277e+01    7.930077e-01
  3.091390e+01    7.767914e-01
  3.102503e+01    7.782753e-01
  3.113616e+01    7.890934e-01
  3.124729e+01    8.014405e-01
  3.135841e+01    8.300149e-01
  3.146954e+01    8.242642e-01
  3.158067e+01    8.493613e-01
  3.169180e+01    9.757710e-01
  3.180293e+01    1.462282e+00
  3.191406e+01    2.053138e+00
  3.202519e+01    1.306071e+00
  3.213632e+01    9.493117e-01
  3.224745e+01    8.511752e-01
  3.235858e+01    7.821345e-01
  3.246970e+01    7.931851e-01
  3.254908e+01    7.737899e-01